{
  "OID": "MDV.PRE0102.Version1.Design1",
  "name": "MDV PrE0102",
  "description": "CRF metadata test fixture",
  "fileOID": "ODM.DDS.PRE0102",
  "odmVersion": "1.3.2",
  "fileType": "Snapshot",
  "originator": "CDISC 360i DDE",
  "context": "Other",
  "studyOID": "ODM.PRE0102.Version1.Design1",
  "studyName": "PrE0102",
  "studyDescription": "A CRF generation test fixture",
  "protocolName": "PrE0102",
  "profile": [
    "https://cdisc.org/dds/profiles/define-xml/1.0",
    "https://cdisc.org/dds/profiles/crf/1.0"
  ],
  "standards": [
    {
      "OID": "STD.SDTMIG",
      "name": "SDTMIG",
      "type": "IG",
      "version": "3.4",
      "status": "FINAL"
    },
    {
      "OID": "STD.SDTMCT",
      "name": "CDISC/NCI",
      "type": "CT",
      "version": "2026-03-27",
      "status": "FINAL",
      "publishingSet": "SDTM"
    },
    {
      "OID": "STD.CDASHIG",
      "name": "CDASHIG",
      "type": "IG",
      "version": "2.3",
      "status": "FINAL"
    },
    {
      "OID": "STD.CDASHCT",
      "name": "CDISC/NCI",
      "type": "CT",
      "version": "2026-03-27",
      "status": "FINAL",
      "publishingSet": "CDASH"
    }
  ],
  "itemGroups": [
    {
      "OID": "IG.VS",
      "name": "VS",
      "description": "Vital Signs",
      "domain": "VS",
      "purpose": "Tabulation",
      "structure": "One record per vital sign measurement per time point per visit per subject",
      "isReferenceData": false,
      "keySequence": [
        "STUDYID",
        "USUBJID",
        "VSSEQ"
      ],
      "standard": "STD.SDTMIG",
      "observationClass": {
        "name": "FINDINGS"
      },
      "items": [
        {
          "OID": "IT.VS.STUDYID",
          "mandatory": true,
          "name": "STUDYID",
          "description": "Study Identifier",
          "role": "Identifier",
          "dataType": "text",
          "origin": [
            {
              "type": "Assigned",
              "source": "Sponsor"
            }
          ]
        },
        {
          "OID": "IT.VS.DOMAIN",
          "mandatory": true,
          "name": "DOMAIN",
          "description": "Domain Abbreviation",
          "role": "Identifier",
          "dataType": "text",
          "origin": [
            {
              "type": "Assigned",
              "source": "Sponsor"
            }
          ]
        },
        {
          "OID": "IT.VS.USUBJID",
          "mandatory": true,
          "name": "USUBJID",
          "description": "Unique Subject Identifier",
          "role": "Identifier",
          "dataType": "text",
          "origin": [
            {
              "type": "Assigned",
              "source": "Sponsor"
            }
          ]
        },
        {
          "OID": "IT.VS.VSSEQ",
          "mandatory": true,
          "name": "VSSEQ",
          "description": "Sequence Number",
          "role": "Identifier",
          "dataType": "integer",
          "origin": [
            {
              "type": "Derived",
              "source": "Sponsor"
            }
          ]
        },
        {
          "OID": "IT.VS.VSTESTCD",
          "mandatory": true,
          "name": "VSTESTCD",
          "description": "Vital Signs Test Short Name",
          "role": "Topic",
          "dataType": "text",
          "origin": [
            {
              "type": "Assigned",
              "source": "Sponsor"
            }
          ],
          "codeList": "CL.VSTESTCD"
        },
        {
          "OID": "IT.VS.VSTEST",
          "mandatory": true,
          "name": "VSTEST",
          "description": "Vital Signs Test Name",
          "role": "Synonym Qualifier",
          "dataType": "text",
          "origin": [
            {
              "type": "Assigned",
              "source": "Sponsor"
            }
          ],
          "codeList": "CL.VSTEST"
        },
        {
          "OID": "IT.VS.VSPOS",
          "mandatory": false,
          "name": "VSPOS",
          "description": "Vital Signs Position of Subject",
          "role": "Record Qualifier",
          "conceptProperty": "CONCPROP.BiomedicalConceptProperty_254",
          "dataType": "text",
          "origin": [
            {
              "type": "Collected",
              "source": "Investigator"
            }
          ],
          "codeList": "CL.POSITION"
        },
        {
          "OID": "IT.VS.VSORRES",
          "mandatory": false,
          "name": "VSORRES",
          "description": "Result or Finding in Original Units",
          "role": "Result Qualifier",
          "conceptProperty": "CONCPROP.BiomedicalConceptProperty_252",
          "dataType": "integer",
          "length": 3,
          "origin": [
            {
              "type": "Collected",
              "source": "Investigator"
            }
          ]
        },
        {
          "OID": "IT.VS.VSORRESU",
          "mandatory": false,
          "name": "VSORRESU",
          "description": "Original Units",
          "role": "Variable Qualifier",
          "conceptProperty": "CONCPROP.BiomedicalConceptProperty_253",
          "dataType": "text",
          "length": 20,
          "origin": [
            {
              "type": "Collected",
              "source": "Investigator"
            }
          ],
          "codeList": "CL.VSRESU"
        },
        {
          "OID": "IT.VS.VSSTRESC",
          "mandatory": false,
          "name": "VSSTRESC",
          "description": "Character Result/Finding in Std Format",
          "role": "Result Qualifier",
          "dataType": "integer",
          "length": 3,
          "origin": [
            {
              "type": "Derived",
              "source": "Sponsor"
            }
          ]
        },
        {
          "OID": "IT.VS.VSSTRESN",
          "mandatory": false,
          "name": "VSSTRESN",
          "description": "Numeric Result/Finding in Standard Units",
          "role": "Result Qualifier",
          "dataType": "integer",
          "length": 3,
          "origin": [
            {
              "type": "Derived",
              "source": "Sponsor"
            }
          ]
        },
        {
          "OID": "IT.VS.VSSTRESU",
          "mandatory": false,
          "name": "VSSTRESU",
          "description": "Standard Units",
          "role": "Variable Qualifier",
          "dataType": "text",
          "length": 20,
          "origin": [
            {
              "type": "Assigned",
              "source": "Sponsor"
            }
          ],
          "codeList": "CL.VSRESU"
        },
        {
          "OID": "IT.VS.VSLOC",
          "mandatory": false,
          "name": "VSLOC",
          "description": "Location of Vital Signs Measurement",
          "role": "Record Qualifier",
          "conceptProperty": "CONCPROP.BiomedicalConceptProperty_255",
          "dataType": "text",
          "origin": [
            {
              "type": "Collected",
              "source": "Investigator"
            }
          ],
          "codeList": "CL.LOC"
        },
        {
          "OID": "IT.VS.VSLAT",
          "mandatory": false,
          "name": "VSLAT",
          "description": "Laterality",
          "role": "Result Qualifier",
          "conceptProperty": "CONCPROP.BiomedicalConceptProperty_256",
          "dataType": "text",
          "origin": [
            {
              "type": "Collected",
              "source": "Investigator"
            }
          ],
          "codeList": "CL.LAT"
        },
        {
          "OID": "IT.VS.VSLOBXFL",
          "mandatory": false,
          "name": "VSLOBXFL",
          "description": "Last Observation Before Exposure Flag",
          "role": "Record Qualifier",
          "dataType": "text",
          "origin": [
            {
              "type": "Collected",
              "source": "Investigator"
            }
          ],
          "codeList": "CL.NY"
        },
        {
          "OID": "IT.VS.VISITNUM",
          "mandatory": false,
          "name": "VISITNUM",
          "description": "Visit Number",
          "role": "Timing",
          "dataType": "integer",
          "origin": [
            {
              "type": "Collected",
              "source": "Investigator"
            }
          ]
        },
        {
          "OID": "IT.VS.VSDTC",
          "mandatory": false,
          "name": "VSDTC",
          "description": "Date/Time of Measurements",
          "role": "Timing",
          "conceptProperty": "CONCPROP.BiomedicalConceptProperty_257",
          "dataType": "datetime",
          "origin": [
            {
              "type": "Collected",
              "source": "Investigator"
            }
          ]
        }
      ],
      "implementsConcept": "CONC.BiomedicalConcept_7"
    },
    {
      "OID": "IG.FORM.VITAL-SIGNS",
      "name": "VITAL SIGNS",
      "label": "Vital Signs",
      "description": "Vital Signs (Blood Pressure, Heart Rate, Temperature) and Weight",
      "type": "Form",
      "repeating": "No",
      "mandatory": true,
      "standard": "STD.CDASHIG",
      "profile": [
        "https://cdisc.org/dds/profiles/crf/1.0"
      ],
      "crfActivityRef": "Activity_6",
      "aliases": [
        {
          "context": "SDTM",
          "name": "VS"
        },
        {
          "context": "USDM",
          "name": "Activity_6"
        }
      ],
      "slices": [
        {
          "OID": "IG.SEC.VITAL-SIGNS.1",
          "name": "Vital Signs",
          "label": "Vital Signs",
          "type": "Section",
          "repeating": "No",
          "mandatory": true,
          "crfSectionInstructions": "__PLACEHOLDER__",
          "slices": [
            {
              "OID": "IG.CON.SYSBP_DENORMALIZED",
              "name": "Systolic Blood Pressure (Denormalized)",
              "label": "Systolic Blood Pressure (Denormalized)",
              "type": "Concept",
              "repeating": "No",
              "mandatory": true,
              "standard": "STD.CDASHIG",
              "items": [
                {
                  "OID": "IT.CRF.VSDAT",
                  "name": "VSDAT",
                  "mandatory": false,
                  "dataType": "date",
                  "description": "Vital Signs Date",
                  "question": "What was the date of the measurement?",
                  "prompt": "Date",
                  "crfCompletionInstructions": "Record date of measurements using this format (DD-MON-YYYY).",
                  "definition": "The date of the vital signs measurement, represented in an unambiguous date format (e.g., DD-MON-YYYY).",
                  "implementationNotes": "The date of measurement can be determined from a collected date of visit (VISDAT); in such cases, a separate measurement date field is not required.",
                  "mappingInstructions": "This does not map directly to an SDTMIG variable. For the SDTM submission dataset, concatenate all collected CDASH DATE and TIME components and populate the SDTMIG variable VSDTC in ISO 8601 format.",
                  "length": 10,
                  "origin": [
                    {
                      "type": "Collected",
                      "source": "Investigator"
                    }
                  ],
                  "coding": [
                    {
                      "code": "C82515",
                      "codeSystem": "http://www.cdisc.org"
                    }
                  ],
                  "conceptProperty": "CONCPROP.BiomedicalConceptProperty_251",
                  "aliases": [
                    {
                      "context": "CDASH",
                      "name": "VSDAT"
                    }
                  ],
                  "crfSdtmTarget": {
                    "annotation": "VSDTC",
                    "variables": [
                      "VSDTC"
                    ],
                    "items": [
                      "IT.VS.VSDTC"
                    ]
                  }
                },
                {
                  "OID": "IT.CRF.SYSBP_VSPOS",
                  "name": "SYSBP_VSPOS",
                  "mandatory": false,
                  "dataType": "text",
                  "description": "Vital Signs Position of Subject",
                  "question": "What was the position of the subject during the Systolic Blood Pressure measurement?",
                  "prompt": "Position",
                  "crfCompletionInstructions": "Record the position of subject at time of test (e.g., SITTING).",
                  "definition": "The position of the subject during a measurement or examination.",
                  "implementationNotes": "Results may be affected by whether conditions for vital signs, as specified in the protocol, were properly met. One common condition is the subject's position.",
                  "mappingInstructions": "Maps directly to the SDTMIG variable listed in the SDTMIG Target column.",
                  "length": 50,
                  "codeList": "CL.CDASH.C71148.SYSBP_DENORMALIZED",
                  "origin": [
                    {
                      "type": "Collected",
                      "source": "Investigator"
                    }
                  ],
                  "coding": [
                    {
                      "code": "C62164",
                      "codeSystem": "http://www.cdisc.org"
                    }
                  ],
                  "conceptProperty": "CONCPROP.BiomedicalConceptProperty_254",
                  "aliases": [
                    {
                      "context": "CDASH",
                      "name": "VSPOS"
                    }
                  ],
                  "crfSdtmTarget": {
                    "annotation": "VSPOS when VSTESTCD = SYSBP",
                    "variables": [
                      "VSPOS"
                    ],
                    "items": [
                      "IT.VS.VSPOS"
                    ]
                  },
                  "crfSelectionType": "Single"
                },
                {
                  "OID": "IT.CRF.SYSBP_VSLOC",
                  "name": "SYSBP_VSLOC",
                  "mandatory": false,
                  "dataType": "text",
                  "description": "Location of Vital Signs Measurement",
                  "question": "What was the location of the subject during the Systolic Blood Pressure measurement?",
                  "prompt": "Anatomical Location",
                  "crfCompletionInstructions": "Record or select location on body where measurement was performed, if not preprinted on CRF.",
                  "definition": "A description of the anatomical location of the subject, relevant to the collection of vital signs measurements.",
                  "implementationNotes": "Collected or preprinted when the sponsor needs to identify the specific anatomical location (e.g., ARM for blood pressure). Sponsors may collect the data using a subset list of controlled terminology on the CRF. LAT, DIR, and PORTOT are used to further describe the anatomical location.",
                  "mappingInstructions": "Maps directly to the SDTMIG variable listed in the SDTMIG Target column.",
                  "length": 10,
                  "codeList": "CL.CDASH.C74456.SYSBP_DENORMALIZED",
                  "origin": [
                    {
                      "type": "Collected",
                      "source": "Investigator"
                    }
                  ],
                  "coding": [
                    {
                      "code": "C13717",
                      "codeSystem": "http://www.cdisc.org"
                    }
                  ],
                  "conceptProperty": "CONCPROP.BiomedicalConceptProperty_255",
                  "aliases": [
                    {
                      "context": "CDASH",
                      "name": "VSLOC"
                    }
                  ],
                  "crfSdtmTarget": {
                    "annotation": "VSLOC when VSTESTCD = SYSBP",
                    "variables": [
                      "VSLOC"
                    ],
                    "items": [
                      "IT.VS.VSLOC"
                    ]
                  },
                  "crfSelectionType": "Single"
                },
                {
                  "OID": "IT.CRF.SYSBP_VSORRES",
                  "name": "SYSBP_VSORRES",
                  "mandatory": true,
                  "dataType": "integer",
                  "description": "VS Result or Finding in Original Units",
                  "question": "What was the result of the Systolic Blood Pressure measurement?",
                  "prompt": "(Result)",
                  "crfCompletionInstructions": "Record the vital sign result.",
                  "definition": "Result of the vital signs measurement as originally received or collected.",
                  "mappingInstructions": "Maps directly to the SDTMIG variable listed in the SDTMIG Target column.",
                  "length": 3,
                  "unitsItem": "IT.CRF.SYSBP_VSORRESU",
                  "origin": [
                    {
                      "type": "Collected",
                      "source": "Investigator"
                    }
                  ],
                  "coding": [
                    {
                      "code": "C70856",
                      "codeSystem": "http://www.cdisc.org"
                    }
                  ],
                  "conceptProperty": "CONCPROP.BiomedicalConceptProperty_252",
                  "aliases": [
                    {
                      "context": "CDASH",
                      "name": "VSORRES"
                    }
                  ],
                  "crfSdtmTarget": {
                    "annotation": "VSORRES when VSTESTCD = SYSBP",
                    "variables": [
                      "VSORRES",
                      "VSTESTCD",
                      "VSTEST"
                    ],
                    "items": [
                      "IT.VS.VSORRES",
                      "IT.VS.VSTESTCD",
                      "IT.VS.VSTEST"
                    ]
                  }
                },
                {
                  "OID": "IT.CRF.SYSBP_VSORRESU",
                  "name": "SYSBP_VSORRESU",
                  "mandatory": true,
                  "dataType": "text",
                  "description": "VS Original Units",
                  "question": "What was the unit of the Systolic Blood Pressure measurement?",
                  "prompt": "Unit",
                  "crfCompletionInstructions": "Record or select the original unit in which these data were collected, if not preprinted on CRF.",
                  "definition": "The unit of the result as originally received or collected.",
                  "implementationNotes": "This should be preprinted on the CRF (or enterable from a picklist) with the associated test when possible, rather than collected as free-text.",
                  "mappingInstructions": "Maps directly to the SDTMIG variable listed in the SDTMIG Target column.",
                  "length": 10,
                  "codeList": "CL.CDASH.C66770",
                  "preSpecifiedValue": "mmHg",
                  "crfPrepopulatedCoding": {
                    "code": "C49670",
                    "codeSystem": "http://www.cdisc.org",
                    "decode": "mmHg"
                  },
                  "origin": [
                    {
                      "type": "Protocol",
                      "source": "Sponsor"
                    }
                  ],
                  "coding": [
                    {
                      "code": "C49669",
                      "codeSystem": "http://www.cdisc.org"
                    }
                  ],
                  "conceptProperty": "CONCPROP.BiomedicalConceptProperty_253",
                  "aliases": [
                    {
                      "context": "CDASH",
                      "name": "VSORRESU"
                    }
                  ],
                  "crfSdtmTarget": {
                    "annotation": "VSORRESU = mmHg when VSTESTCD = SYSBP",
                    "variables": [
                      "VSORRESU",
                      "VSTESTCD",
                      "VSTEST"
                    ],
                    "items": [
                      "IT.VS.VSORRESU",
                      "IT.VS.VSTESTCD",
                      "IT.VS.VSTEST"
                    ]
                  }
                }
              ],
              "coding": [
                {
                  "code": "C25298",
                  "codeSystem": "https://library.cdisc.org/api/mdr/bc/biomedicalconcepts",
                  "decode": "Systolic Blood Pressure"
                },
                {
                  "code": "SYSBP",
                  "codeSystem": "https://library.cdisc.org/api/mdr/specializations/sdtm/datasetspecializations"
                },
                {
                  "code": "SYSBP_DENORMALIZED",
                  "codeSystem": "https://library.cdisc.org/api/mdr/specializations/crf/specializations",
                  "codeSystemVersion": "2025-12-31"
                }
              ],
              "crfSpecializationRef": "/mdr/specializations/crf/specializations/SYSBP_DENORMALIZED",
              "domain": "VS",
              "crfImplementationOption": "Denormalized",
              "implementsConcept": "CONC.BiomedicalConcept_7"
            },
            {
              "OID": "IG.CON.DIABP_DENORMALIZED",
              "name": "Diastolic Blood Pressure (Denormalized)",
              "label": "Diastolic Blood Pressure (Denormalized)",
              "type": "Concept",
              "repeating": "No",
              "mandatory": true,
              "standard": "STD.CDASHIG",
              "items": [
                {
                  "OID": "IT.CRF.VSDAT",
                  "name": "VSDAT",
                  "mandatory": false,
                  "dataType": "date",
                  "description": "Vital Signs Date",
                  "question": "What was the date of the measurement?",
                  "prompt": "Date",
                  "crfCompletionInstructions": "Record date of measurements using this format (DD-MON-YYYY).",
                  "definition": "The date of the vital signs measurement, represented in an unambiguous date format (e.g., DD-MON-YYYY).",
                  "implementationNotes": "The date of measurement can be determined from a collected date of visit (VISDAT); in such cases, a separate measurement date field is not required.",
                  "mappingInstructions": "This does not map directly to an SDTMIG variable. For the SDTM submission dataset, concatenate all collected CDASH DATE and TIME components and populate the SDTMIG variable VSDTC in ISO 8601 format.",
                  "length": 10,
                  "origin": [
                    {
                      "type": "Collected",
                      "source": "Investigator"
                    }
                  ],
                  "coding": [
                    {
                      "code": "C82515",
                      "codeSystem": "http://www.cdisc.org"
                    }
                  ],
                  "conceptProperty": "CONCPROP.BiomedicalConceptProperty_251",
                  "aliases": [
                    {
                      "context": "CDASH",
                      "name": "VSDAT"
                    }
                  ],
                  "crfSdtmTarget": {
                    "annotation": "VSDTC",
                    "variables": [
                      "VSDTC"
                    ],
                    "items": [
                      "IT.VS.VSDTC"
                    ]
                  }
                },
                {
                  "OID": "IT.CRF.DIABP_VSPOS",
                  "name": "DIABP_VSPOS",
                  "mandatory": false,
                  "dataType": "text",
                  "description": "Vital Signs Position of Subject",
                  "question": "What was the position of the subject during the Diastolic Blood Pressure measurement?",
                  "prompt": "Position",
                  "crfCompletionInstructions": "Record the position of subject at time of test (e.g., SITTING).",
                  "definition": "The position of the subject during a measurement or examination.",
                  "implementationNotes": "Results may be affected by whether conditions for vital signs, as specified in the protocol, were properly met. One common condition is the subject's position.",
                  "mappingInstructions": "Maps directly to the SDTMIG variable listed in the SDTMIG Target column.",
                  "length": 50,
                  "codeList": "CL.CDASH.C71148.DIABP_DENORMALIZED",
                  "origin": [
                    {
                      "type": "Collected",
                      "source": "Investigator"
                    }
                  ],
                  "coding": [
                    {
                      "code": "C62164",
                      "codeSystem": "http://www.cdisc.org"
                    }
                  ],
                  "conceptProperty": "CONCPROP.BiomedicalConceptProperty_254",
                  "aliases": [
                    {
                      "context": "CDASH",
                      "name": "VSPOS"
                    }
                  ],
                  "crfSdtmTarget": {
                    "annotation": "VSPOS when VSTESTCD = DIABP",
                    "variables": [
                      "VSPOS"
                    ],
                    "items": [
                      "IT.VS.VSPOS"
                    ]
                  },
                  "crfSelectionType": "Single"
                },
                {
                  "OID": "IT.CRF.DIABP_VSLOC",
                  "name": "DIABP_VSLOC",
                  "mandatory": false,
                  "dataType": "text",
                  "description": "Location of Vital Signs Measurement",
                  "question": "What was the position of the subject during the Diastolic Blood Pressure measurement?",
                  "prompt": "Anatomical Location",
                  "crfCompletionInstructions": "Record or select location on body where measurement was performed, if not preprinted on CRF.",
                  "definition": "A description of the anatomical location of the subject, relevant to the collection of vital signs measurements.",
                  "implementationNotes": "Collected or preprinted when the sponsor needs to identify the specific anatomical location (e.g., ARM for blood pressure). Sponsors may collect the data using a subset list of controlled terminology on the CRF. LAT, DIR, and PORTOT are used to further describe the anatomical location.",
                  "mappingInstructions": "Maps directly to the SDTMIG variable listed in the SDTMIG Target column.",
                  "length": 50,
                  "codeList": "CL.CDASH.C74456.DIABP_DENORMALIZED",
                  "origin": [
                    {
                      "type": "Collected",
                      "source": "Investigator"
                    }
                  ],
                  "coding": [
                    {
                      "code": "C13717",
                      "codeSystem": "http://www.cdisc.org"
                    }
                  ],
                  "conceptProperty": "CONCPROP.BiomedicalConceptProperty_255",
                  "aliases": [
                    {
                      "context": "CDASH",
                      "name": "VSLOC"
                    }
                  ],
                  "crfSdtmTarget": {
                    "annotation": "VSLOC when VSTESTCD = DIABP",
                    "variables": [
                      "VSLOC"
                    ],
                    "items": [
                      "IT.VS.VSLOC"
                    ]
                  },
                  "crfSelectionType": "Single"
                },
                {
                  "OID": "IT.CRF.DIABP_VSORRES",
                  "name": "DIABP_VSORRES",
                  "mandatory": true,
                  "dataType": "integer",
                  "description": "VS Result or Finding in Original Units",
                  "question": "What was the result of the Diastolic Blood Pressure measurement?",
                  "prompt": "(Result)",
                  "crfCompletionInstructions": "Record the vital sign result.",
                  "definition": "Result of the vital signs measurement as originally received or collected.",
                  "mappingInstructions": "Maps directly to the SDTMIG variable listed in the SDTMIG Target column.",
                  "length": 3,
                  "unitsItem": "IT.CRF.DIABP_VSORRESU",
                  "origin": [
                    {
                      "type": "Collected",
                      "source": "Investigator"
                    }
                  ],
                  "coding": [
                    {
                      "code": "C70856",
                      "codeSystem": "http://www.cdisc.org"
                    }
                  ],
                  "conceptProperty": "CONCPROP.BiomedicalConceptProperty_252",
                  "aliases": [
                    {
                      "context": "CDASH",
                      "name": "VSORRES"
                    }
                  ],
                  "crfSdtmTarget": {
                    "annotation": "VSORRES when VSTESTCD = DIABP",
                    "variables": [
                      "VSORRES",
                      "VSTESTCD",
                      "VSTEST"
                    ],
                    "items": [
                      "IT.VS.VSORRES",
                      "IT.VS.VSTESTCD",
                      "IT.VS.VSTEST"
                    ]
                  }
                },
                {
                  "OID": "IT.CRF.DIABP_VSORRESU",
                  "name": "DIABP_VSORRESU",
                  "mandatory": true,
                  "dataType": "text",
                  "description": "VS Original Units",
                  "question": "What was the unit of the Diastolic Blood Pressure measurement?",
                  "prompt": "Unit",
                  "crfCompletionInstructions": "Record or select the original unit in which these data were collected, if not preprinted on CRF.",
                  "definition": "The unit of the result as originally received or collected.",
                  "implementationNotes": "This should be preprinted on the CRF (or enterable from a picklist) with the associated test when possible, rather than collected as free-text.",
                  "mappingInstructions": "Maps directly to the SDTMIG variable listed in the SDTMIG Target column.",
                  "length": 10,
                  "codeList": "CL.CDASH.C66770",
                  "preSpecifiedValue": "mmHg",
                  "crfPrepopulatedCoding": {
                    "code": "C49670",
                    "codeSystem": "http://www.cdisc.org",
                    "decode": "mmHg"
                  },
                  "origin": [
                    {
                      "type": "Protocol",
                      "source": "Sponsor"
                    }
                  ],
                  "coding": [
                    {
                      "code": "C49669",
                      "codeSystem": "http://www.cdisc.org"
                    }
                  ],
                  "conceptProperty": "CONCPROP.BiomedicalConceptProperty_253",
                  "aliases": [
                    {
                      "context": "CDASH",
                      "name": "VSORRESU"
                    }
                  ],
                  "crfSdtmTarget": {
                    "annotation": "VSORRESU = mmHg when VSTESTCD = DIABP",
                    "variables": [
                      "VSORRESU",
                      "VSTESTCD",
                      "VSTEST"
                    ],
                    "items": [
                      "IT.VS.VSORRESU",
                      "IT.VS.VSTESTCD",
                      "IT.VS.VSTEST"
                    ]
                  }
                }
              ],
              "coding": [
                {
                  "code": "C25299",
                  "codeSystem": "https://library.cdisc.org/api/mdr/bc/biomedicalconcepts",
                  "decode": "Diastolic Blood Pressure"
                },
                {
                  "code": "DIABP",
                  "codeSystem": "https://library.cdisc.org/api/mdr/specializations/sdtm/datasetspecializations"
                },
                {
                  "code": "DIABP_DENORMALIZED",
                  "codeSystem": "https://library.cdisc.org/api/mdr/specializations/crf/specializations",
                  "codeSystemVersion": "2025-12-31"
                }
              ],
              "crfSpecializationRef": "/mdr/specializations/crf/specializations/DIABP_DENORMALIZED",
              "domain": "VS",
              "crfImplementationOption": "Denormalized",
              "implementsConcept": "CONC.BiomedicalConcept_8"
            },
            {
              "OID": "IG.CON.HR_DENORMALIZED",
              "name": "Heart Rate (Denormalized)",
              "label": "Heart Rate (Denormalized)",
              "type": "Concept",
              "repeating": "No",
              "mandatory": true,
              "standard": "STD.CDASHIG",
              "items": [
                {
                  "OID": "IT.CRF.VSDAT",
                  "name": "VSDAT",
                  "mandatory": false,
                  "dataType": "date",
                  "description": "Vital Signs Date",
                  "question": "What was the date of the measurement?",
                  "prompt": "Date",
                  "crfCompletionInstructions": "Record date of measurements using this format (DD-MON-YYYY).",
                  "definition": "The date of the vital signs measurement, represented in an unambiguous date format (e.g., DD-MON-YYYY).",
                  "implementationNotes": "The date of measurement can be determined from a collected date of visit (VISDAT); in such cases, a separate measurement date field is not required.",
                  "mappingInstructions": "This does not map directly to an SDTMIG variable. For the SDTM submission dataset, concatenate all collected CDASH DATE and TIME components and populate the SDTMIG variable VSDTC in ISO 8601 format.",
                  "length": 10,
                  "origin": [
                    {
                      "type": "Collected",
                      "source": "Investigator"
                    }
                  ],
                  "coding": [
                    {
                      "code": "C82515",
                      "codeSystem": "http://www.cdisc.org"
                    }
                  ],
                  "conceptProperty": "CONCPROP.BiomedicalConceptProperty_251",
                  "aliases": [
                    {
                      "context": "CDASH",
                      "name": "VSDAT"
                    }
                  ],
                  "crfSdtmTarget": {
                    "annotation": "VSDTC",
                    "variables": [
                      "VSDTC"
                    ],
                    "items": [
                      "IT.VS.VSDTC"
                    ]
                  }
                },
                {
                  "OID": "IT.CRF.HR_VSPOS",
                  "name": "HR_VSPOS",
                  "mandatory": false,
                  "dataType": "text",
                  "description": "Vital Signs Position of Subject",
                  "question": "What was the position of the subject during the measurement?",
                  "prompt": "Position",
                  "crfCompletionInstructions": "Record the position of subject at time of test (e.g., SITTING).",
                  "definition": "The position of the subject during a measurement or examination.",
                  "implementationNotes": "Results may be affected by whether conditions for vital signs, as specified in the protocol, were properly met. One common condition is the subject's position.",
                  "mappingInstructions": "Maps directly to the SDTMIG variable listed in the SDTMIG Target column.",
                  "length": 50,
                  "codeList": "CL.CDASH.C71148.HR_DENORMALIZED",
                  "origin": [
                    {
                      "type": "Collected",
                      "source": "Investigator"
                    }
                  ],
                  "coding": [
                    {
                      "code": "C62164",
                      "codeSystem": "http://www.cdisc.org"
                    }
                  ],
                  "conceptProperty": "CONCPROP.BiomedicalConceptProperty_254",
                  "aliases": [
                    {
                      "context": "CDASH",
                      "name": "VSPOS"
                    }
                  ],
                  "crfSdtmTarget": {
                    "annotation": "VSPOS when VSTESTCD = HR",
                    "variables": [
                      "VSPOS"
                    ],
                    "items": [
                      "IT.VS.VSPOS"
                    ]
                  },
                  "crfSelectionType": "Single"
                },
                {
                  "OID": "IT.CRF.HR_VSLOC",
                  "name": "HR_VSLOC",
                  "mandatory": false,
                  "dataType": "text",
                  "description": "Location of Vital Signs Measurement",
                  "question": "What was the anatomical location where the measurement was taken?",
                  "prompt": "Anatomical Location",
                  "crfCompletionInstructions": "Record or select location on body where measurement was performed, if not preprinted on CRF.",
                  "definition": "A description of the anatomical location of the subject, relevant to the collection of vital signs measurements.",
                  "implementationNotes": "Collected or preprinted when the sponsor needs to identify the specific anatomical location (e.g., ARM for blood pressure). Sponsors may collect the data using a subset list of controlled terminology on the CRF. LAT, DIR, and PORTOT are used to further describe the anatomical location.",
                  "mappingInstructions": "Maps directly to the SDTMIG variable listed in the SDTMIG Target column.",
                  "length": 50,
                  "codeList": "CL.CDASH.C74456.HR_DENORMALIZED",
                  "origin": [
                    {
                      "type": "Collected",
                      "source": "Investigator"
                    }
                  ],
                  "coding": [
                    {
                      "code": "C13717",
                      "codeSystem": "http://www.cdisc.org"
                    }
                  ],
                  "conceptProperty": "CONCPROP.BiomedicalConceptProperty_255",
                  "aliases": [
                    {
                      "context": "CDASH",
                      "name": "VSLOC"
                    }
                  ],
                  "crfSdtmTarget": {
                    "annotation": "VSLOC when VSTESTCD = HR",
                    "variables": [
                      "VSLOC"
                    ],
                    "items": [
                      "IT.VS.VSLOC"
                    ]
                  },
                  "crfSelectionType": "Single"
                },
                {
                  "OID": "IT.CRF.HR_VSLAT",
                  "name": "HR_VSLAT",
                  "mandatory": false,
                  "dataType": "text",
                  "description": "Vital Signs Laterality",
                  "question": "What was the side of the anatomical location of the vital signs measurement?",
                  "prompt": "Side",
                  "crfCompletionInstructions": "Record the side of the anatomical location of the vital signs measurement.",
                  "definition": "Qualifier for anatomical location, further detailing the side of the body.",
                  "implementationNotes": "May be preprinted or collected when the sponsor needs to identify the specific side of the anatomical location. Sponsors may collect the data using a subset list of controlled terminology on the CRF.",
                  "mappingInstructions": "Maps directly to the SDTMIG variable listed in the SDTMIG Target column.",
                  "length": 10,
                  "codeList": "CL.CDASH.C99073.HR_DENORMALIZED",
                  "origin": [
                    {
                      "type": "Collected",
                      "source": "Investigator"
                    }
                  ],
                  "coding": [
                    {
                      "code": "C25185",
                      "codeSystem": "http://www.cdisc.org"
                    }
                  ],
                  "conceptProperty": "CONCPROP.BiomedicalConceptProperty_256",
                  "aliases": [
                    {
                      "context": "CDASH",
                      "name": "VSLAT"
                    }
                  ],
                  "crfSdtmTarget": {
                    "annotation": "VSLAT when VSTESTCD = HR",
                    "variables": [
                      "VSLAT"
                    ],
                    "items": [
                      "IT.VS.VSLAT"
                    ]
                  },
                  "crfSelectionType": "Single"
                },
                {
                  "OID": "IT.CRF.HR_VSORRES",
                  "name": "HR_VSORRES",
                  "mandatory": true,
                  "dataType": "integer",
                  "description": "VS Result or Finding in Original Units",
                  "question": "What was the result of the measurement?",
                  "prompt": "Heart Rate",
                  "crfCompletionInstructions": "Record the vital sign result.",
                  "definition": "Result of the vital signs measurement as originally received or collected.",
                  "mappingInstructions": "Maps directly to the SDTMIG variable listed in the SDTMIG Target column.",
                  "length": 3,
                  "unitsItem": "IT.CRF.HR_VSORRESU",
                  "origin": [
                    {
                      "type": "Collected",
                      "source": "Investigator"
                    }
                  ],
                  "coding": [
                    {
                      "code": "C70856",
                      "codeSystem": "http://www.cdisc.org"
                    }
                  ],
                  "conceptProperty": "CONCPROP.BiomedicalConceptProperty_252",
                  "aliases": [
                    {
                      "context": "CDASH",
                      "name": "VSORRES"
                    }
                  ],
                  "crfSdtmTarget": {
                    "annotation": "VSORRES when VSTESTCD = HR",
                    "variables": [
                      "VSORRES",
                      "VSTESTCD",
                      "VSTEST"
                    ],
                    "items": [
                      "IT.VS.VSORRES",
                      "IT.VS.VSTESTCD",
                      "IT.VS.VSTEST"
                    ]
                  }
                },
                {
                  "OID": "IT.CRF.HR_VSORRESU",
                  "name": "HR_VSORRESU",
                  "mandatory": true,
                  "dataType": "text",
                  "description": "VS Original Units",
                  "question": "What was the unit of the measurement?",
                  "prompt": "Heart Rate Unit",
                  "crfCompletionInstructions": "Record or select the original unit in which these data were collected, if not preprinted on CRF.",
                  "definition": "The unit of the result as originally received or collected.",
                  "implementationNotes": "This should be preprinted on the CRF (or enterable from a picklist) with the associated test when possible, rather than collected as free-text.",
                  "mappingInstructions": "Maps directly to the SDTMIG variable listed in the SDTMIG Target column.",
                  "length": 10,
                  "codeList": "CL.CDASH.C66770",
                  "preSpecifiedValue": "beats/min",
                  "crfPrepopulatedCoding": {
                    "code": "C49673",
                    "codeSystem": "http://www.cdisc.org",
                    "decode": "beats/min"
                  },
                  "origin": [
                    {
                      "type": "Protocol",
                      "source": "Sponsor"
                    }
                  ],
                  "coding": [
                    {
                      "code": "C73688",
                      "codeSystem": "http://www.cdisc.org"
                    }
                  ],
                  "conceptProperty": "CONCPROP.BiomedicalConceptProperty_265",
                  "aliases": [
                    {
                      "context": "CDASH",
                      "name": "VSORRESU"
                    }
                  ],
                  "crfSdtmTarget": {
                    "annotation": "VSORRESU = beats/min when VSTESTCD = HR",
                    "variables": [
                      "VSORRESU",
                      "VSTESTCD",
                      "VSTEST"
                    ],
                    "items": [
                      "IT.VS.VSORRESU",
                      "IT.VS.VSTESTCD",
                      "IT.VS.VSTEST"
                    ]
                  }
                }
              ],
              "coding": [
                {
                  "code": "C49677",
                  "codeSystem": "https://library.cdisc.org/api/mdr/bc/biomedicalconcepts",
                  "decode": "Heart Rate"
                },
                {
                  "code": "HR",
                  "codeSystem": "https://library.cdisc.org/api/mdr/specializations/sdtm/datasetspecializations"
                },
                {
                  "code": "HR_DENORMALIZED",
                  "codeSystem": "https://library.cdisc.org/api/mdr/specializations/crf/specializations",
                  "codeSystemVersion": "2025-12-31"
                }
              ],
              "crfSpecializationRef": "/mdr/specializations/crf/specializations/HR_DENORMALIZED",
              "domain": "VS",
              "crfImplementationOption": "Denormalized",
              "implementsConcept": "CONC.BiomedicalConcept_9"
            },
            {
              "OID": "IG.CON.TEMP_DENORMALIZED",
              "name": "Temperature (Denormalized)",
              "label": "Temperature (Denormalized)",
              "type": "Concept",
              "repeating": "No",
              "mandatory": true,
              "standard": "STD.CDASHIG",
              "items": [
                {
                  "OID": "IT.CRF.VSDAT",
                  "name": "VSDAT",
                  "mandatory": false,
                  "dataType": "date",
                  "description": "Vital Signs Date",
                  "question": "What was the date of the measurement?",
                  "prompt": "Date",
                  "crfCompletionInstructions": "Record date of measurements using this format (DD-MON-YYYY).",
                  "definition": "The date of the vital signs measurement, represented in an unambiguous date format (e.g., DD-MON-YYYY).",
                  "implementationNotes": "The date of measurement can be determined from a collected date of visit (VISDAT); in such cases, a separate measurement date field is not required.",
                  "mappingInstructions": "This does not map directly to an SDTMIG variable. For the SDTM submission dataset, concatenate all collected CDASH DATE and TIME components and populate the SDTMIG variable VSDTC in ISO 8601 format.",
                  "length": 10,
                  "origin": [
                    {
                      "type": "Collected",
                      "source": "Investigator"
                    }
                  ],
                  "coding": [
                    {
                      "code": "C82515",
                      "codeSystem": "http://www.cdisc.org"
                    }
                  ],
                  "conceptProperty": "CONCPROP.BiomedicalConceptProperty_251",
                  "aliases": [
                    {
                      "context": "CDASH",
                      "name": "VSDAT"
                    }
                  ],
                  "crfSdtmTarget": {
                    "annotation": "VSDTC",
                    "variables": [
                      "VSDTC"
                    ],
                    "items": [
                      "IT.VS.VSDTC"
                    ]
                  }
                },
                {
                  "OID": "IT.CRF.TEMP_VSORRES",
                  "name": "TEMP_VSORRES",
                  "mandatory": true,
                  "dataType": "float",
                  "description": "VS Result or Finding in Original Units",
                  "question": "What was the result of the measurement?",
                  "prompt": "Temperature",
                  "crfCompletionInstructions": "Record the vital sign result.",
                  "definition": "Result of the vital signs measurement as originally received or collected.",
                  "mappingInstructions": "Maps directly to the SDTMIG variable listed in the SDTMIG Target column.",
                  "length": 4,
                  "unitsItem": "IT.CRF.TEMP_VSORRESU",
                  "origin": [
                    {
                      "type": "Collected",
                      "source": "Investigator"
                    }
                  ],
                  "coding": [
                    {
                      "code": "C70856",
                      "codeSystem": "http://www.cdisc.org"
                    }
                  ],
                  "conceptProperty": "CONCPROP.BiomedicalConceptProperty_252",
                  "aliases": [
                    {
                      "context": "CDASH",
                      "name": "VSORRES"
                    }
                  ],
                  "crfSdtmTarget": {
                    "annotation": "VSORRES when VSTESTCD = TEMP",
                    "variables": [
                      "VSORRES",
                      "VSTESTCD",
                      "VSTEST"
                    ],
                    "items": [
                      "IT.VS.VSORRES",
                      "IT.VS.VSTESTCD",
                      "IT.VS.VSTEST"
                    ]
                  }
                },
                {
                  "OID": "IT.CRF.TEMP_VSORRESU",
                  "name": "TEMP_VSORRESU",
                  "mandatory": true,
                  "dataType": "text",
                  "description": "VS Original Units",
                  "question": "What was the unit of the measurement?",
                  "prompt": "Temperature Unit",
                  "crfCompletionInstructions": "Record or select the original unit in which these data were collected, if not preprinted on CRF.",
                  "definition": "The unit of the result as originally received or collected.",
                  "implementationNotes": "This should be preprinted on the CRF (or enterable from a picklist) with the associated test when possible, rather than collected as free-text.",
                  "mappingInstructions": "Maps directly to the SDTMIG variable listed in the SDTMIG Target column.",
                  "length": 2,
                  "codeList": "CL.CDASH.C66770.TEMP_DENORMALIZED",
                  "origin": [
                    {
                      "type": "Collected",
                      "source": "Investigator"
                    }
                  ],
                  "coding": [
                    {
                      "code": "C44276",
                      "codeSystem": "http://www.cdisc.org"
                    }
                  ],
                  "conceptProperty": "CONCPROP.BiomedicalConceptProperty_271",
                  "aliases": [
                    {
                      "context": "CDASH",
                      "name": "VSORRESU"
                    }
                  ],
                  "crfSdtmTarget": {
                    "annotation": "VSORRESU when VSTESTCD = TEMP",
                    "variables": [
                      "VSORRESU",
                      "VSTESTCD",
                      "VSTEST"
                    ],
                    "items": [
                      "IT.VS.VSORRESU",
                      "IT.VS.VSTESTCD",
                      "IT.VS.VSTEST"
                    ]
                  },
                  "crfSelectionType": "Single"
                },
                {
                  "OID": "IT.CRF.TEMP_VSLOC",
                  "name": "TEMP_VSLOC",
                  "mandatory": false,
                  "dataType": "text",
                  "description": "Location of Vital Signs Measurement",
                  "question": "What was the anatomical location where the measurement was taken?",
                  "prompt": "Anatomical Location",
                  "crfCompletionInstructions": "Record or select location on body where measurement was performed, if not preprinted on CRF.",
                  "definition": "A description of the anatomical location of the subject, relevant to the collection of vital signs measurements.",
                  "implementationNotes": "Collected or preprinted when the sponsor needs to identify the specific anatomical location (e.g., ARM for blood pressure). Sponsors may collect the data using a subset list of controlled terminology on the CRF. LAT, DIR, and PORTOT are used to further describe the anatomical location.",
                  "mappingInstructions": "Maps directly to the SDTMIG variable listed in the SDTMIG Target column.",
                  "length": 11,
                  "codeList": "CL.CDASH.C74456.TEMP_DENORMALIZED",
                  "origin": [
                    {
                      "type": "Collected",
                      "source": "Investigator"
                    }
                  ],
                  "coding": [
                    {
                      "code": "C13717",
                      "codeSystem": "http://www.cdisc.org"
                    }
                  ],
                  "conceptProperty": "CONCPROP.BiomedicalConceptProperty_255",
                  "aliases": [
                    {
                      "context": "CDASH",
                      "name": "VSLOC"
                    }
                  ],
                  "crfSdtmTarget": {
                    "annotation": "VSLOC when VSTESTCD = TEMP",
                    "variables": [
                      "VSLOC"
                    ],
                    "items": [
                      "IT.VS.VSLOC"
                    ]
                  },
                  "crfSelectionType": "Single"
                }
              ],
              "coding": [
                {
                  "code": "C174446",
                  "codeSystem": "https://library.cdisc.org/api/mdr/bc/biomedicalconcepts",
                  "decode": "Body Temperature"
                },
                {
                  "code": "TEMP",
                  "codeSystem": "https://library.cdisc.org/api/mdr/specializations/sdtm/datasetspecializations"
                },
                {
                  "code": "TEMP_DENORMALIZED",
                  "codeSystem": "https://library.cdisc.org/api/mdr/specializations/crf/specializations",
                  "codeSystemVersion": "2025-12-31"
                }
              ],
              "crfSpecializationRef": "/mdr/specializations/crf/specializations/TEMP_DENORMALIZED",
              "domain": "VS",
              "crfImplementationOption": "Denormalized",
              "implementsConcept": "CONC.BiomedicalConcept_10"
            },
            {
              "OID": "IG.CON.WEIGHT_DENORMALIZED",
              "name": "Weight (Denormalized)",
              "label": "Weight (Denormalized)",
              "type": "Concept",
              "repeating": "No",
              "mandatory": true,
              "standard": "STD.CDASHIG",
              "items": [
                {
                  "OID": "IT.CRF.VSDAT",
                  "name": "VSDAT",
                  "mandatory": false,
                  "dataType": "date",
                  "description": "Vital Signs Date",
                  "question": "What was the date of the measurement?",
                  "prompt": "Date",
                  "crfCompletionInstructions": "Record date of measurements using this format (DD-MON-YYYY).",
                  "definition": "The date of the vital signs measurement, represented in an unambiguous date format (e.g., DD-MON-YYYY).",
                  "implementationNotes": "The date of measurement can be determined from a collected date of visit (VISDAT); in such cases, a separate measurement date field is not required.",
                  "mappingInstructions": "This does not map directly to an SDTMIG variable. For the SDTM submission dataset, concatenate all collected CDASH DATE and TIME components and populate the SDTMIG variable VSDTC in ISO 8601 format.",
                  "length": 10,
                  "origin": [
                    {
                      "type": "Collected",
                      "source": "Investigator"
                    }
                  ],
                  "coding": [
                    {
                      "code": "C82515",
                      "codeSystem": "http://www.cdisc.org"
                    }
                  ],
                  "conceptProperty": "CONCPROP.BiomedicalConceptProperty_251",
                  "aliases": [
                    {
                      "context": "CDASH",
                      "name": "VSDAT"
                    }
                  ],
                  "crfSdtmTarget": {
                    "annotation": "VSDTC",
                    "variables": [
                      "VSDTC"
                    ],
                    "items": [
                      "IT.VS.VSDTC"
                    ]
                  }
                },
                {
                  "OID": "IT.CRF.WEIGHT_VSORRES",
                  "name": "WEIGHT_VSORRES",
                  "mandatory": true,
                  "dataType": "float",
                  "description": "VS Result or Finding in Original Units",
                  "question": "What was the result of the measurement?",
                  "prompt": "Weight",
                  "crfCompletionInstructions": "Record the vital sign result.",
                  "definition": "Result of the vital signs measurement as originally received or collected.",
                  "mappingInstructions": "Maps directly to the SDTMIG variable listed in the SDTMIG Target column.",
                  "length": 4,
                  "unitsItem": "IT.CRF.WEIGHT_VSORRESU",
                  "origin": [
                    {
                      "type": "Collected",
                      "source": "Investigator"
                    }
                  ],
                  "coding": [
                    {
                      "code": "C70856",
                      "codeSystem": "http://www.cdisc.org"
                    }
                  ],
                  "conceptProperty": "CONCPROP.BiomedicalConceptProperty_252",
                  "aliases": [
                    {
                      "context": "CDASH",
                      "name": "VSORRES"
                    }
                  ],
                  "crfSdtmTarget": {
                    "annotation": "VSORRES when VSTESTCD = WEIGHT",
                    "variables": [
                      "VSORRES",
                      "VSTESTCD",
                      "VSTEST"
                    ],
                    "items": [
                      "IT.VS.VSORRES",
                      "IT.VS.VSTESTCD",
                      "IT.VS.VSTEST"
                    ]
                  }
                },
                {
                  "OID": "IT.CRF.WEIGHT_VSORRESU",
                  "name": "WEIGHT_VSORRESU",
                  "mandatory": true,
                  "dataType": "text",
                  "description": "VS Original Units",
                  "question": "What was the unit of the measurement?",
                  "prompt": "Weight Unit",
                  "crfCompletionInstructions": "Record or select the original unit in which these data were collected, if not preprinted on CRF.",
                  "definition": "The unit of the result as originally received or collected.",
                  "implementationNotes": "This should be preprinted on the CRF (or enterable from a picklist) with the associated test when possible, rather than collected as free-text.",
                  "mappingInstructions": "Maps directly to the SDTMIG variable listed in the SDTMIG Target column.",
                  "length": 10,
                  "codeList": "CL.CDASH.C66770.WEIGHT_DENORMALIZED",
                  "origin": [
                    {
                      "type": "Collected",
                      "source": "Investigator"
                    }
                  ],
                  "coding": [
                    {
                      "code": "C48208",
                      "codeSystem": "http://www.cdisc.org"
                    }
                  ],
                  "conceptProperty": "CONCPROP.BiomedicalConceptProperty_275",
                  "aliases": [
                    {
                      "context": "CDASH",
                      "name": "VSORRESU"
                    }
                  ],
                  "crfSdtmTarget": {
                    "annotation": "VSORRESU when VSTESTCD = WEIGHT",
                    "variables": [
                      "VSORRESU",
                      "VSTESTCD",
                      "VSTEST"
                    ],
                    "items": [
                      "IT.VS.VSORRESU",
                      "IT.VS.VSTESTCD",
                      "IT.VS.VSTEST"
                    ]
                  },
                  "crfSelectionType": "Single"
                }
              ],
              "coding": [
                {
                  "code": "C81328",
                  "codeSystem": "https://library.cdisc.org/api/mdr/bc/biomedicalconcepts",
                  "decode": "Body Weight"
                },
                {
                  "code": "WEIGHT",
                  "codeSystem": "https://library.cdisc.org/api/mdr/specializations/sdtm/datasetspecializations"
                },
                {
                  "code": "WEIGHT_DENORMALIZED",
                  "codeSystem": "https://library.cdisc.org/api/mdr/specializations/crf/specializations",
                  "codeSystemVersion": "2025-12-31"
                }
              ],
              "crfSpecializationRef": "/mdr/specializations/crf/specializations/WEIGHT_DENORMALIZED",
              "domain": "VS",
              "crfImplementationOption": "Denormalized",
              "implementsConcept": "CONC.BiomedicalConcept_11"
            },
            {
              "OID": "IG.CON.HEIGHT_DENORMALIZED",
              "name": "Height (Denormalized)",
              "label": "Height (Denormalized)",
              "type": "Concept",
              "repeating": "No",
              "mandatory": true,
              "standard": "STD.CDASHIG",
              "items": [
                {
                  "OID": "IT.CRF.VSDAT",
                  "name": "VSDAT",
                  "mandatory": false,
                  "dataType": "date",
                  "description": "Vital Signs Date",
                  "question": "What was the date of the measurement?",
                  "prompt": "Date",
                  "crfCompletionInstructions": "Record date of measurements using this format (DD-MON-YYYY).",
                  "definition": "The date of the vital signs measurement, represented in an unambiguous date format (e.g., DD-MON-YYYY).",
                  "implementationNotes": "The date of measurement can be determined from a collected date of visit (VISDAT); in such cases, a separate measurement date field is not required.",
                  "mappingInstructions": "This does not map directly to an SDTMIG variable. For the SDTM submission dataset, concatenate all collected CDASH DATE and TIME components and populate the SDTMIG variable VSDTC in ISO 8601 format.",
                  "length": 10,
                  "origin": [
                    {
                      "type": "Collected",
                      "source": "Investigator"
                    }
                  ],
                  "coding": [
                    {
                      "code": "C82515",
                      "codeSystem": "http://www.cdisc.org"
                    }
                  ],
                  "conceptProperty": "CONCPROP.BiomedicalConceptProperty_251",
                  "aliases": [
                    {
                      "context": "CDASH",
                      "name": "VSDAT"
                    }
                  ],
                  "crfSdtmTarget": {
                    "annotation": "VSDTC",
                    "variables": [
                      "VSDTC"
                    ],
                    "items": [
                      "IT.VS.VSDTC"
                    ]
                  }
                },
                {
                  "OID": "IT.CRF.HEIGHT_VSORRES",
                  "name": "HEIGHT_VSORRES",
                  "mandatory": true,
                  "dataType": "float",
                  "description": "VS Result or Finding in Original Units",
                  "question": "What was the result of the measurement?",
                  "prompt": "Height",
                  "crfCompletionInstructions": "Record the vital sign result.",
                  "definition": "Result of the vital signs measurement as originally received or collected.",
                  "mappingInstructions": "Maps directly to the SDTMIG variable listed in the SDTMIG Target column.",
                  "length": 4,
                  "unitsItem": "IT.CRF.HEIGHT_VSORRESU",
                  "origin": [
                    {
                      "type": "Collected",
                      "source": "Investigator"
                    }
                  ],
                  "coding": [
                    {
                      "code": "C70856",
                      "codeSystem": "http://www.cdisc.org"
                    }
                  ],
                  "conceptProperty": "CONCPROP.BiomedicalConceptProperty_252",
                  "aliases": [
                    {
                      "context": "CDASH",
                      "name": "VSORRES"
                    }
                  ],
                  "crfSdtmTarget": {
                    "annotation": "VSORRES when VSTESTCD = HEIGHT",
                    "variables": [
                      "VSORRES",
                      "VSTESTCD",
                      "VSTEST"
                    ],
                    "items": [
                      "IT.VS.VSORRES",
                      "IT.VS.VSTESTCD",
                      "IT.VS.VSTEST"
                    ]
                  }
                },
                {
                  "OID": "IT.CRF.HEIGHT_VSORRESU",
                  "name": "HEIGHT_VSORRESU",
                  "mandatory": true,
                  "dataType": "text",
                  "description": "VS Original Units",
                  "question": "What was the unit of the measurement?",
                  "prompt": "Height Unit",
                  "crfCompletionInstructions": "Record or select the original unit in which these data were collected, if not preprinted on CRF.",
                  "definition": "The unit of the result as originally received or collected.",
                  "implementationNotes": "This should be preprinted on the CRF (or enterable from a picklist) with the associated test when possible, rather than collected as free-text.",
                  "mappingInstructions": "Maps directly to the SDTMIG variable listed in the SDTMIG Target column.",
                  "length": 2,
                  "codeList": "CL.CDASH.C66770.HEIGHT_DENORMALIZED",
                  "origin": [
                    {
                      "type": "Collected",
                      "source": "Investigator"
                    }
                  ],
                  "coding": [
                    {
                      "code": "C168688",
                      "codeSystem": "http://www.cdisc.org"
                    }
                  ],
                  "aliases": [
                    {
                      "context": "CDASH",
                      "name": "VSORRESU"
                    }
                  ],
                  "crfSdtmTarget": {
                    "annotation": "VSORRESU when VSTESTCD = HEIGHT",
                    "variables": [
                      "VSORRESU",
                      "VSTESTCD",
                      "VSTEST"
                    ],
                    "items": [
                      "IT.VS.VSORRESU",
                      "IT.VS.VSTESTCD",
                      "IT.VS.VSTEST"
                    ]
                  },
                  "crfSelectionType": "Single"
                }
              ],
              "coding": [
                {
                  "code": "C164634",
                  "codeSystem": "https://library.cdisc.org/api/mdr/bc/biomedicalconcepts",
                  "decode": "Body Height"
                },
                {
                  "code": "HEIGHT",
                  "codeSystem": "https://library.cdisc.org/api/mdr/specializations/sdtm/datasetspecializations"
                },
                {
                  "code": "HEIGHT_DENORMALIZED",
                  "codeSystem": "https://library.cdisc.org/api/mdr/specializations/crf/specializations",
                  "codeSystemVersion": "2025-12-31"
                }
              ],
              "crfSpecializationRef": "/mdr/specializations/crf/specializations/HEIGHT_DENORMALIZED",
              "domain": "VS",
              "crfImplementationOption": "Denormalized",
              "implementsConcept": "CONC.BiomedicalConcept_128"
            }
          ]
        }
      ],
      "domain": "VS"
    },
    {
      "OID": "IG.FORM.CBC",
      "name": "CBC",
      "label": "CBC with differentials, Platelets",
      "description": "CBC with differentials, Platelets",
      "type": "Form",
      "repeating": "No",
      "mandatory": true,
      "standard": "STD.CDASHIG",
      "profile": [
        "https://cdisc.org/dds/profiles/crf/1.0"
      ],
      "crfActivityRef": "Activity_24",
      "aliases": [
        {
          "context": "SDTM",
          "name": "LB"
        },
        {
          "context": "USDM",
          "name": "Activity_24"
        }
      ],
      "slices": [
        {
          "OID": "IG.SEC.CBC.1",
          "name": "CBC with differentials, Platelets",
          "label": "CBC with differentials, Platelets",
          "type": "Section",
          "repeating": "No",
          "mandatory": true,
          "crfSectionInstructions": "__PLACEHOLDER__",
          "slices": [
            {
              "OID": "IG.CON.WBCBLD_DENORMALIZED",
              "name": "Leukocyte Count in Blood (Denormalized)",
              "label": "Leukocyte Count in Blood (Denormalized)",
              "type": "Concept",
              "repeating": "No",
              "mandatory": true,
              "standard": "STD.CDASHIG",
              "items": [
                {
                  "OID": "IT.CRF.WBC_LBCAT",
                  "name": "WBC_LBCAT",
                  "mandatory": false,
                  "dataType": "text",
                  "description": "Category for Lab Test",
                  "question": "What was the name of the lab panel?",
                  "prompt": "Lab Panel Name",
                  "crfCompletionInstructions": "Record the lab test category, if not preprinted on the CRF.",
                  "definition": "A grouping of topic-variable values based on user-defined characteristics.",
                  "implementationNotes": "Sponsor-defined controlled terminology. This would most commonly be either a heading or a preprinted category value on the CRF, and not a question to which the site would provide an answer. If a question is asked, the response would typically be a sponsor-defined codelist. If the form is laid out as a grid, then words such as \"Category\" can be included as the column heading. Laboratory tests have commonly recognized categories and subcategories that should be used whenever appropriate. LBCAT and or LBSCAT should be included if lab status (NOT DONE) is collected for each lab category (e.g., HEMATOLOGY, CHEMISTRY, URINALYSIS).",
                  "mappingInstructions": "Maps directly to the SDTMIG variable listed in the SDTMIG Target column.",
                  "length": 100,
                  "preSpecifiedValue": "HEMATOLOGY",
                  "origin": [
                    {
                      "type": "Protocol",
                      "source": "Sponsor"
                    }
                  ],
                  "aliases": [
                    {
                      "context": "CDASH",
                      "name": "LBCAT"
                    }
                  ],
                  "crfSdtmTarget": {
                    "annotation": "LBCAT = HEMATOLOGY",
                    "variables": [
                      "LBCAT"
                    ]
                  },
                  "crfDisplayHidden": true
                },
                {
                  "OID": "IT.CRF.WBC_LBSCAT",
                  "name": "WBC_LBSCAT",
                  "mandatory": false,
                  "dataType": "text",
                  "description": "Subcategory for Lab Test",
                  "question": "What was the name of the lab sub-panel?",
                  "prompt": "Lab Sub-Panel Name",
                  "crfCompletionInstructions": "Record the lab test subcategory, if not preprinted on the CRF.",
                  "definition": "A sub-division of the LBCAT values based on user defined characteristics.",
                  "implementationNotes": "Sponsor-defined controlled terminology. This would most commonly be either a heading or a preprinted category value on the CRF, and not a question to which the site would provide an answer. If a question is asked, the response would typically be a sponsor-defined codelist. If the form is laid out as a grid, then words such as \"Subcategory\" can be included as the column heading. Laboratory tests have commonly recognized categories and subcategories that should be used whenever appropriate. LBSCAT can only be used if there is an LBCAT, and it must be a subcategorization of LBCAT.",
                  "mappingInstructions": "Maps directly to the SDTMIG variable listed in the SDTMIG Target column.",
                  "length": 100,
                  "origin": [
                    {
                      "type": "Collected",
                      "source": "Investigator"
                    }
                  ],
                  "aliases": [
                    {
                      "context": "CDASH",
                      "name": "LBSCAT"
                    }
                  ],
                  "crfSdtmTarget": {
                    "annotation": "LBSCAT",
                    "variables": [
                      "LBSCAT"
                    ]
                  },
                  "crfDisplayHidden": true
                },
                {
                  "OID": "IT.CRF.WBC_LBNAM",
                  "name": "WBC_LBNAM",
                  "mandatory": false,
                  "dataType": "text",
                  "description": "Vendor Name",
                  "question": "What was the name of the laboratory used?",
                  "prompt": "Laboratory Name",
                  "crfCompletionInstructions": "Record the laboratory name.",
                  "definition": "The name or identifier of the vendor (e.g., laboratory) that provided the test results.",
                  "implementationNotes": "Recommended to collect on the CRF if lab name was not collected at the site/study level or if multiple labs are used by a site.",
                  "mappingInstructions": "Maps directly to the SDTMIG variable listed in the SDTMIG Target column.",
                  "length": 200,
                  "origin": [
                    {
                      "type": "Collected",
                      "source": "Investigator"
                    }
                  ],
                  "aliases": [
                    {
                      "context": "CDASH",
                      "name": "LBNAM"
                    }
                  ],
                  "crfSdtmTarget": {
                    "annotation": "LBNAM",
                    "variables": [
                      "LBNAM"
                    ]
                  }
                },
                {
                  "OID": "IT.CRF.WBC_LBDAT",
                  "name": "WBC_LBDAT",
                  "mandatory": false,
                  "dataType": "date",
                  "description": "Specimen Collection Date",
                  "question": "What was the (start) date of the lab specimen collection?",
                  "prompt": "Specimen Collection Date",
                  "crfCompletionInstructions": "Record the (start) date of specimen collection using this format (DD-MON-YYYY).",
                  "definition": "The date of specimen collection, represented in an unambiguous date format (e.g., DD-MON-YYYY).",
                  "implementationNotes": "A complete date is expected. The date of collection may be determined from the date of visit (VISDAT) and, if so, a separate assessment date field is not required. The SDTMIG LBDTC variable contains either a date/time when a specimen is collected at a point in time or the start date/time, when a specimen is collected over time.",
                  "mappingInstructions": "This does not map directly to an SDTMIG variable. For the SDTM submission dataset, concatenate all collected CDASH DATE and TIME components and populate the SDTMIG variable LBDTC in ISO 8601 format.",
                  "length": 10,
                  "origin": [
                    {
                      "type": "Collected",
                      "source": "Investigator"
                    }
                  ],
                  "coding": [
                    {
                      "code": "C82515",
                      "codeSystem": "http://www.cdisc.org"
                    }
                  ],
                  "conceptProperty": "CONCPROP.BiomedicalConceptProperty_251",
                  "aliases": [
                    {
                      "context": "CDASH",
                      "name": "LBDAT"
                    }
                  ],
                  "crfSdtmTarget": {
                    "annotation": "LBDTC",
                    "variables": [
                      "LBDTC"
                    ]
                  }
                },
                {
                  "OID": "IT.CRF.WBC_LBSPEC",
                  "name": "WBC_LBSPEC",
                  "mandatory": true,
                  "dataType": "text",
                  "description": "LB Specimen Type",
                  "question": "What is the specimen material type?",
                  "prompt": "Specimen Material",
                  "crfCompletionInstructions": "Record the specimen material type.",
                  "definition": "The type of sample material taken from a biological entity.",
                  "implementationNotes": "The type of specimen used for a measure. Should be collected if not available elsewhere, or if required to differentiate multiple specimens.",
                  "mappingInstructions": "Maps directly to the SDTMIG variable listed in the SDTMIG Target column.",
                  "length": 100,
                  "codeList": "CL.CDASH.C78734",
                  "preSpecifiedValue": "BLOOD",
                  "crfPrepopulatedCoding": {
                    "code": "C12434",
                    "codeSystem": "http://www.cdisc.org",
                    "decode": "BLOOD"
                  },
                  "origin": [
                    {
                      "type": "Protocol",
                      "source": "Sponsor"
                    }
                  ],
                  "coding": [
                    {
                      "code": "C70713",
                      "codeSystem": "http://www.cdisc.org"
                    }
                  ],
                  "conceptProperty": "CONCPROP.BiomedicalConceptProperty_279",
                  "aliases": [
                    {
                      "context": "CDASH",
                      "name": "LBSPEC"
                    }
                  ],
                  "crfSdtmTarget": {
                    "annotation": "LBSPEC = BLOOD",
                    "variables": [
                      "LBSPEC"
                    ]
                  }
                },
                {
                  "OID": "IT.CRF.WBC_LBFAST",
                  "name": "WBC_LBFAST",
                  "mandatory": false,
                  "dataType": "text",
                  "description": "Lab Fasting Status",
                  "question": "Was the subject fasting?",
                  "prompt": "Fasting",
                  "crfCompletionInstructions": "Record whether the subject was fasting prior to the test being performed.",
                  "definition": "An indication that the subject has abstained from food/water for the specified amount of time.",
                  "implementationNotes": "Results may be affected by whether the subject was fasting. This may not be relevant for all tests.",
                  "mappingInstructions": "Maps directly to the SDTMIG variable listed in the SDTMIG Target column.",
                  "length": 1,
                  "codeList": "CL.CDASH.C66742.WBCBLD_DENORMALIZED",
                  "origin": [
                    {
                      "type": "Collected",
                      "source": "Investigator"
                    }
                  ],
                  "coding": [
                    {
                      "code": "C93566",
                      "codeSystem": "http://www.cdisc.org"
                    }
                  ],
                  "conceptProperty": "CONCPROP.BiomedicalConceptProperty_280",
                  "aliases": [
                    {
                      "context": "CDASH",
                      "name": "LBFAST"
                    }
                  ],
                  "crfSdtmTarget": {
                    "annotation": "LBFAST",
                    "variables": [
                      "LBFAST"
                    ]
                  },
                  "crfSelectionType": "Single"
                },
                {
                  "OID": "IT.CRF.WBC_LBORRES",
                  "name": "WBC_LBORRES",
                  "mandatory": true,
                  "dataType": "float",
                  "description": "Lab Result or Finding in Original Units",
                  "question": "What was the result of the lab test?",
                  "prompt": "Leukocytes",
                  "crfCompletionInstructions": "Record the laboratory test result.",
                  "definition": "Result of the measurement or finding as originally received or collected.",
                  "implementationNotes": "Both quantitative results and interpretive findings or summaries may be recorded here.",
                  "mappingInstructions": "Maps directly to the SDTMIG variable listed in the SDTMIG Target column.",
                  "length": 8,
                  "unitsItem": "IT.CRF.WBC_LBORRESU",
                  "origin": [
                    {
                      "type": "Collected",
                      "source": "Investigator"
                    }
                  ],
                  "coding": [
                    {
                      "code": "C70856",
                      "codeSystem": "http://www.cdisc.org"
                    }
                  ],
                  "conceptProperty": "CONCPROP.BiomedicalConceptProperty_252",
                  "aliases": [
                    {
                      "context": "CDASH",
                      "name": "LBORRES"
                    }
                  ],
                  "crfSdtmTarget": {
                    "annotation": "LBORRES when LBTESTCD = WBC",
                    "variables": [
                      "LBORRES",
                      "LBTESTCD",
                      "LBTEST"
                    ]
                  }
                },
                {
                  "OID": "IT.CRF.WBC_LBORRESU",
                  "name": "WBC_LBORRESU",
                  "mandatory": true,
                  "dataType": "text",
                  "description": "Lab Original Units",
                  "question": "What was the unit of the lab result?",
                  "prompt": "Unit",
                  "crfCompletionInstructions": "Record or select the original unit in which these data were collected, if not preprinted on CRF.",
                  "definition": "The unit of the result as originally received or collected.",
                  "implementationNotes": "Should be preprinted on the CRF with the associated test when possible, rather than collected in a free-text field. Should be included if applicable and not available elsewhere. For some lab tests the units may not be applicable (e.g., urine color).",
                  "mappingInstructions": "Maps directly to the SDTMIG variable listed in the SDTMIG Target column.",
                  "length": 20,
                  "codeList": "CL.CDASH.C71620",
                  "preSpecifiedValue": "10^9/L",
                  "crfPrepopulatedCoding": {
                    "code": "C67255",
                    "codeSystem": "http://www.cdisc.org",
                    "decode": "10^9/L"
                  },
                  "origin": [
                    {
                      "type": "Protocol",
                      "source": "Sponsor"
                    }
                  ],
                  "coding": [
                    {
                      "code": "C67391",
                      "codeSystem": "http://www.cdisc.org"
                    }
                  ],
                  "conceptProperty": "CONCPROP.BiomedicalConceptProperty_381",
                  "aliases": [
                    {
                      "context": "CDASH",
                      "name": "LBORRESU"
                    }
                  ],
                  "crfSdtmTarget": {
                    "annotation": "LBORRESU = 10^9/L when LBTESTCD = WBC",
                    "variables": [
                      "LBORRESU",
                      "LBTESTCD",
                      "LBTEST"
                    ]
                  }
                },
                {
                  "OID": "IT.CRF.WBC_LBORNRLO",
                  "name": "WBC_LBORNRLO",
                  "mandatory": false,
                  "dataType": "float",
                  "description": "Lab Ref Range Lower Limit in Orig Unit",
                  "question": "What was the lower limit of the reference range for this lab test?",
                  "prompt": "Normal Range Lower Limit",
                  "crfCompletionInstructions": "Record the lower limit of the reference range of the lab test.",
                  "definition": "The lower end of normal range or reference range for continuous results stored in LBORRES.",
                  "implementationNotes": "LBORNRLO and LBORNRHI should be populated only for continuous results; LBSTNRC should be populated only for non-continuous results. These data may be obtained from the lab or the electronic equipment. These data could be determined from a site or lab specific set of normal ranges stored in a look-up table. See the SDTMIG for details on mapping and selecting the proper variable name.",
                  "mappingInstructions": "Maps directly to the SDTMIG variable listed in the SDTMIG Target column.",
                  "length": 8,
                  "origin": [
                    {
                      "type": "Collected",
                      "source": "Investigator"
                    }
                  ],
                  "aliases": [
                    {
                      "context": "CDASH",
                      "name": "LBORNRLO"
                    }
                  ],
                  "crfSdtmTarget": {
                    "annotation": "LBORNRLO",
                    "variables": [
                      "LBORNRLO"
                    ]
                  }
                },
                {
                  "OID": "IT.CRF.WBC_LBORNRHI",
                  "name": "WBC_LBORNRHI",
                  "mandatory": false,
                  "dataType": "float",
                  "description": "Lab Ref Range Upper Limit in Orig Unit",
                  "question": "What was the high limit of the reference range for this lab test?",
                  "prompt": "Normal Range Upper Limit",
                  "crfCompletionInstructions": "Record the upper limit of the reference range of the lab test.",
                  "definition": "The upper end of normal range or reference range for continuous results stored in LBORRES.",
                  "implementationNotes": "LBORNRLO and LBORNRHI should be populated only for continuous results; LBSTNRC should be populated only for non-continuous results. These data may be obtained from the lab or the electronic equipment. These data could be determined from a site or lab specific set of normal ranges stored in a look-up table. See the SDTMIG for details on mapping and selecting the proper variable name.",
                  "mappingInstructions": "Maps directly to the SDTMIG variable listed in the SDTMIG Target column.",
                  "length": 8,
                  "origin": [
                    {
                      "type": "Collected",
                      "source": "Investigator"
                    }
                  ],
                  "aliases": [
                    {
                      "context": "CDASH",
                      "name": "LBORNRHI"
                    }
                  ],
                  "crfSdtmTarget": {
                    "annotation": "LBORNRHI",
                    "variables": [
                      "LBORNRHI"
                    ]
                  }
                },
                {
                  "OID": "IT.CRF.WBC_LBCLSIG",
                  "name": "WBC_LBCLSIG",
                  "mandatory": false,
                  "dataType": "text",
                  "description": "Lab Clinical Significance",
                  "question": "Was this result clinically significant?",
                  "prompt": "Clinically Significant",
                  "crfCompletionInstructions": "Record whether lab results were clinically significant.",
                  "definition": "An indication whether lab test results were clinically significant.",
                  "implementationNotes": "May be included if required by the protocol.",
                  "mappingInstructions": "Maps directly to the SDTMIG variable listed in the SDTMIG Target column.",
                  "length": 1,
                  "codeList": "CL.CDASH.C66742.WBCBLD_DENORMALIZED",
                  "origin": [
                    {
                      "type": "Collected",
                      "source": "Investigator"
                    }
                  ],
                  "aliases": [
                    {
                      "context": "CDASH",
                      "name": "LBCLSIG"
                    }
                  ],
                  "crfSdtmTarget": {
                    "annotation": "LBCLSIG",
                    "variables": [
                      "LBCLSIG"
                    ]
                  },
                  "crfSelectionType": "Single"
                }
              ],
              "coding": [
                {
                  "code": "C51948",
                  "codeSystem": "https://library.cdisc.org/api/mdr/bc/biomedicalconcepts",
                  "decode": "Leukocyte Count"
                },
                {
                  "code": "WBCBLD",
                  "codeSystem": "https://library.cdisc.org/api/mdr/specializations/sdtm/datasetspecializations"
                },
                {
                  "code": "WBCBLD_DENORMALIZED",
                  "codeSystem": "https://library.cdisc.org/api/mdr/specializations/crf/specializations",
                  "codeSystemVersion": "2025-12-31"
                }
              ],
              "crfSpecializationRef": "/mdr/specializations/crf/specializations/WBCBLD_DENORMALIZED",
              "domain": "LB",
              "crfImplementationOption": "Denormalized",
              "crfScenario": "Local Processing",
              "implementsConcept": "CONC.BiomedicalConcept_61"
            },
            {
              "OID": "IG.CON.RBCBLD_DENORMALIZED",
              "name": "Erythrocyte Count in Blood (Denormalized)",
              "label": "Erythrocyte Count in Blood (Denormalized)",
              "type": "Concept",
              "repeating": "No",
              "mandatory": true,
              "standard": "STD.CDASHIG",
              "items": [
                {
                  "OID": "IT.CRF.RBC_LBCAT",
                  "name": "RBC_LBCAT",
                  "mandatory": false,
                  "dataType": "text",
                  "description": "Category for Lab Test",
                  "question": "What was the name of the lab panel?",
                  "prompt": "Lab Panel Name",
                  "crfCompletionInstructions": "Record the lab test category, if not preprinted on the CRF.",
                  "definition": "A grouping of topic-variable values based on user-defined characteristics.",
                  "implementationNotes": "Sponsor-defined controlled terminology. This would most commonly be either a heading or a preprinted category value on the CRF, and not a question to which the site would provide an answer. If a question is asked, the response would typically be a sponsor-defined codelist. If the form is laid out as a grid, then words such as \"Category\" can be included as the column heading. Laboratory tests have commonly recognized categories and subcategories that should be used whenever appropriate. LBCAT and or LBSCAT should be included if lab status (NOT DONE) is collected for each lab category (e.g., HEMATOLOGY, CHEMISTRY, URINALYSIS).",
                  "mappingInstructions": "Maps directly to the SDTMIG variable listed in the SDTMIG Target column.",
                  "length": 100,
                  "preSpecifiedValue": "HEMATOLOGY",
                  "origin": [
                    {
                      "type": "Protocol",
                      "source": "Sponsor"
                    }
                  ],
                  "aliases": [
                    {
                      "context": "CDASH",
                      "name": "LBCAT"
                    }
                  ],
                  "crfSdtmTarget": {
                    "annotation": "LBCAT = HEMATOLOGY",
                    "variables": [
                      "LBCAT"
                    ]
                  },
                  "crfDisplayHidden": true
                },
                {
                  "OID": "IT.CRF.RBC_LBSCAT",
                  "name": "RBC_LBSCAT",
                  "mandatory": false,
                  "dataType": "text",
                  "description": "Subcategory for Lab Test",
                  "question": "What was the name of the lab sub-panel?",
                  "prompt": "Lab Sub-Panel Name",
                  "crfCompletionInstructions": "Record the lab test subcategory, if not preprinted on the CRF.",
                  "definition": "A sub-division of the LBCAT values based on user defined characteristics.",
                  "implementationNotes": "Sponsor-defined controlled terminology. This would most commonly be either a heading or a preprinted category value on the CRF, and not a question to which the site would provide an answer. If a question is asked, the response would typically be a sponsor-defined codelist. If the form is laid out as a grid, then words such as \"Subcategory\" can be included as the column heading. Laboratory tests have commonly recognized categories and subcategories that should be used whenever appropriate. LBSCAT can only be used if there is an LBCAT, and it must be a subcategorization of LBCAT.",
                  "mappingInstructions": "Maps directly to the SDTMIG variable listed in the SDTMIG Target column.",
                  "length": 100,
                  "origin": [
                    {
                      "type": "Collected",
                      "source": "Investigator"
                    }
                  ],
                  "aliases": [
                    {
                      "context": "CDASH",
                      "name": "LBSCAT"
                    }
                  ],
                  "crfSdtmTarget": {
                    "annotation": "LBSCAT",
                    "variables": [
                      "LBSCAT"
                    ]
                  },
                  "crfDisplayHidden": true
                },
                {
                  "OID": "IT.CRF.RBC_LBNAM",
                  "name": "RBC_LBNAM",
                  "mandatory": false,
                  "dataType": "text",
                  "description": "Vendor Name",
                  "question": "What was the name of the laboratory used?",
                  "prompt": "Laboratory Name",
                  "crfCompletionInstructions": "Record the laboratory name.",
                  "definition": "The name or identifier of the vendor (e.g., laboratory) that provided the test results.",
                  "implementationNotes": "Recommended to collect on the CRF if lab name was not collected at the site/study level or if multiple labs are used by a site.",
                  "mappingInstructions": "Maps directly to the SDTMIG variable listed in the SDTMIG Target column.",
                  "length": 200,
                  "origin": [
                    {
                      "type": "Collected",
                      "source": "Investigator"
                    }
                  ],
                  "aliases": [
                    {
                      "context": "CDASH",
                      "name": "LBNAM"
                    }
                  ],
                  "crfSdtmTarget": {
                    "annotation": "LBNAM",
                    "variables": [
                      "LBNAM"
                    ]
                  }
                },
                {
                  "OID": "IT.CRF.RBC_LBDAT",
                  "name": "RBC_LBDAT",
                  "mandatory": false,
                  "dataType": "date",
                  "description": "Specimen Collection Date",
                  "question": "What was the (start) date of the lab specimen collection?",
                  "prompt": "Specimen Collection Date",
                  "crfCompletionInstructions": "Record the (start) date of specimen collection using this format (DD-MON-YYYY).",
                  "definition": "The date of specimen collection, represented in an unambiguous date format (e.g., DD-MON-YYYY).",
                  "implementationNotes": "A complete date is expected. The date of collection may be determined from the date of visit (VISDAT) and, if so, a separate assessment date field is not required. The SDTMIG LBDTC variable contains either a date/time when a specimen is collected at a point in time or the start date/time, when a specimen is collected over time.",
                  "mappingInstructions": "This does not map directly to an SDTMIG variable. For the SDTM submission dataset, concatenate all collected CDASH DATE and TIME components and populate the SDTMIG variable LBDTC in ISO 8601 format.",
                  "length": 10,
                  "origin": [
                    {
                      "type": "Collected",
                      "source": "Investigator"
                    }
                  ],
                  "coding": [
                    {
                      "code": "C82515",
                      "codeSystem": "http://www.cdisc.org"
                    }
                  ],
                  "conceptProperty": "CONCPROP.BiomedicalConceptProperty_251",
                  "aliases": [
                    {
                      "context": "CDASH",
                      "name": "LBDAT"
                    }
                  ],
                  "crfSdtmTarget": {
                    "annotation": "LBDTC",
                    "variables": [
                      "LBDTC"
                    ]
                  }
                },
                {
                  "OID": "IT.CRF.RBC_LBSPEC",
                  "name": "RBC_LBSPEC",
                  "mandatory": true,
                  "dataType": "text",
                  "description": "LB Specimen Type",
                  "question": "What is the specimen material type?",
                  "prompt": "Specimen Material",
                  "crfCompletionInstructions": "Record the specimen material type.",
                  "definition": "The type of sample material taken from a biological entity.",
                  "implementationNotes": "The type of specimen used for a measure. Should be collected if not available elsewhere, or if required to differentiate multiple specimens.",
                  "mappingInstructions": "Maps directly to the SDTMIG variable listed in the SDTMIG Target column.",
                  "length": 100,
                  "codeList": "CL.CDASH.C78734",
                  "preSpecifiedValue": "BLOOD",
                  "crfPrepopulatedCoding": {
                    "code": "C12434",
                    "codeSystem": "http://www.cdisc.org",
                    "decode": "BLOOD"
                  },
                  "origin": [
                    {
                      "type": "Protocol",
                      "source": "Sponsor"
                    }
                  ],
                  "coding": [
                    {
                      "code": "C70713",
                      "codeSystem": "http://www.cdisc.org"
                    }
                  ],
                  "conceptProperty": "CONCPROP.BiomedicalConceptProperty_279",
                  "aliases": [
                    {
                      "context": "CDASH",
                      "name": "LBSPEC"
                    }
                  ],
                  "crfSdtmTarget": {
                    "annotation": "LBSPEC = BLOOD",
                    "variables": [
                      "LBSPEC"
                    ]
                  }
                },
                {
                  "OID": "IT.CRF.RBC_LBFAST",
                  "name": "RBC_LBFAST",
                  "mandatory": false,
                  "dataType": "text",
                  "description": "Lab Fasting Status",
                  "question": "Was the subject fasting?",
                  "prompt": "Fasting",
                  "crfCompletionInstructions": "Record whether the subject was fasting prior to the test being performed.",
                  "definition": "An indication that the subject has abstained from food/water for the specified amount of time.",
                  "implementationNotes": "Results may be affected by whether the subject was fasting. This may not be relevant for all tests.",
                  "mappingInstructions": "Maps directly to the SDTMIG variable listed in the SDTMIG Target column.",
                  "length": 1,
                  "codeList": "CL.CDASH.C66742.RBCBLD_DENORMALIZED",
                  "origin": [
                    {
                      "type": "Collected",
                      "source": "Investigator"
                    }
                  ],
                  "coding": [
                    {
                      "code": "C93566",
                      "codeSystem": "http://www.cdisc.org"
                    }
                  ],
                  "conceptProperty": "CONCPROP.BiomedicalConceptProperty_280",
                  "aliases": [
                    {
                      "context": "CDASH",
                      "name": "LBFAST"
                    }
                  ],
                  "crfSdtmTarget": {
                    "annotation": "LBFAST",
                    "variables": [
                      "LBFAST"
                    ]
                  },
                  "crfSelectionType": "Single"
                },
                {
                  "OID": "IT.CRF.RBC_LBORRES",
                  "name": "RBC_LBORRES",
                  "mandatory": true,
                  "dataType": "float",
                  "description": "Lab Result or Finding in Original Units",
                  "question": "What was the result of the lab test?",
                  "prompt": "Erythrocytes",
                  "crfCompletionInstructions": "Record the laboratory test result.",
                  "definition": "Result of the measurement or finding as originally received or collected.",
                  "implementationNotes": "Both quantitative results and interpretive findings or summaries may be recorded here.",
                  "mappingInstructions": "Maps directly to the SDTMIG variable listed in the SDTMIG Target column.",
                  "length": 8,
                  "unitsItem": "IT.CRF.RBC_LBORRESU",
                  "origin": [
                    {
                      "type": "Collected",
                      "source": "Investigator"
                    }
                  ],
                  "coding": [
                    {
                      "code": "C70856",
                      "codeSystem": "http://www.cdisc.org"
                    }
                  ],
                  "conceptProperty": "CONCPROP.BiomedicalConceptProperty_252",
                  "aliases": [
                    {
                      "context": "CDASH",
                      "name": "LBORRES"
                    }
                  ],
                  "crfSdtmTarget": {
                    "annotation": "LBORRES when LBTESTCD = RBC",
                    "variables": [
                      "LBORRES",
                      "LBTESTCD",
                      "LBTEST"
                    ]
                  }
                },
                {
                  "OID": "IT.CRF.RBC_LBORRESU",
                  "name": "RBC_LBORRESU",
                  "mandatory": true,
                  "dataType": "text",
                  "description": "Lab Original Units",
                  "question": "What was the unit of the lab result?",
                  "prompt": "Unit",
                  "crfCompletionInstructions": "Record or select the original unit in which these data were collected, if not preprinted on CRF.",
                  "definition": "The unit of the result as originally received or collected.",
                  "implementationNotes": "Should be preprinted on the CRF with the associated test when possible, rather than collected in a free-text field. Should be included if applicable and not available elsewhere. For some lab tests the units may not be applicable (e.g., urine color).",
                  "mappingInstructions": "Maps directly to the SDTMIG variable listed in the SDTMIG Target column.",
                  "length": 20,
                  "codeList": "CL.CDASH.C71620",
                  "preSpecifiedValue": "10^12/L",
                  "crfPrepopulatedCoding": {
                    "code": "C67308",
                    "codeSystem": "http://www.cdisc.org",
                    "decode": "10^12/L"
                  },
                  "origin": [
                    {
                      "type": "Protocol",
                      "source": "Sponsor"
                    }
                  ],
                  "coding": [
                    {
                      "code": "C67391",
                      "codeSystem": "http://www.cdisc.org"
                    }
                  ],
                  "conceptProperty": "CONCPROP.BiomedicalConceptProperty_381",
                  "aliases": [
                    {
                      "context": "CDASH",
                      "name": "LBORRESU"
                    }
                  ],
                  "crfSdtmTarget": {
                    "annotation": "LBORRESU = 10^12/L when LBTESTCD = RBC",
                    "variables": [
                      "LBORRESU",
                      "LBTESTCD",
                      "LBTEST"
                    ]
                  }
                },
                {
                  "OID": "IT.CRF.RBC_LBORNRLO",
                  "name": "RBC_LBORNRLO",
                  "mandatory": false,
                  "dataType": "float",
                  "description": "Lab Ref Range Lower Limit in Orig Unit",
                  "question": "What was the lower limit of the reference range for this lab test?",
                  "prompt": "Normal Range Lower Limit",
                  "crfCompletionInstructions": "Record the lower limit of the reference range of the lab test.",
                  "definition": "The lower end of normal range or reference range for continuous results stored in LBORRES.",
                  "implementationNotes": "LBORNRLO and LBORNRHI should be populated only for continuous results; LBSTNRC should be populated only for non-continuous results. These data may be obtained from the lab or the electronic equipment. These data could be determined from a site or lab specific set of normal ranges stored in a look-up table. See the SDTMIG for details on mapping and selecting the proper variable name.",
                  "mappingInstructions": "Maps directly to the SDTMIG variable listed in the SDTMIG Target column.",
                  "length": 8,
                  "origin": [
                    {
                      "type": "Collected",
                      "source": "Investigator"
                    }
                  ],
                  "aliases": [
                    {
                      "context": "CDASH",
                      "name": "LBORNRLO"
                    }
                  ],
                  "crfSdtmTarget": {
                    "annotation": "LBORNRLO",
                    "variables": [
                      "LBORNRLO"
                    ]
                  }
                },
                {
                  "OID": "IT.CRF.RBC_LBORNRHI",
                  "name": "RBC_LBORNRHI",
                  "mandatory": false,
                  "dataType": "float",
                  "description": "Lab Ref Range Upper Limit in Orig Unit",
                  "question": "What was the high limit of the reference range for this lab test?",
                  "prompt": "Normal Range Upper Limit",
                  "crfCompletionInstructions": "Record the upper limit of the reference range of the lab test.",
                  "definition": "The upper end of normal range or reference range for continuous results stored in LBORRES.",
                  "implementationNotes": "LBORNRLO and LBORNRHI should be populated only for continuous results; LBSTNRC should be populated only for non-continuous results. These data may be obtained from the lab or the electronic equipment. These data could be determined from a site or lab specific set of normal ranges stored in a look-up table. See the SDTMIG for details on mapping and selecting the proper variable name.",
                  "mappingInstructions": "Maps directly to the SDTMIG variable listed in the SDTMIG Target column.",
                  "length": 8,
                  "origin": [
                    {
                      "type": "Collected",
                      "source": "Investigator"
                    }
                  ],
                  "aliases": [
                    {
                      "context": "CDASH",
                      "name": "LBORNRHI"
                    }
                  ],
                  "crfSdtmTarget": {
                    "annotation": "LBORNRHI",
                    "variables": [
                      "LBORNRHI"
                    ]
                  }
                },
                {
                  "OID": "IT.CRF.RBC_LBCLSIG",
                  "name": "RBC_LBCLSIG",
                  "mandatory": false,
                  "dataType": "text",
                  "description": "Lab Clinical Significance",
                  "question": "Was this result clinically significant?",
                  "prompt": "Clinically Significant",
                  "crfCompletionInstructions": "Record whether lab results were clinically significant.",
                  "definition": "An indication whether lab test results were clinically significant.",
                  "implementationNotes": "May be included if required by the protocol.",
                  "mappingInstructions": "Maps directly to the SDTMIG variable listed in the SDTMIG Target column.",
                  "length": 1,
                  "codeList": "CL.CDASH.C66742.RBCBLD_DENORMALIZED",
                  "origin": [
                    {
                      "type": "Collected",
                      "source": "Investigator"
                    }
                  ],
                  "aliases": [
                    {
                      "context": "CDASH",
                      "name": "LBCLSIG"
                    }
                  ],
                  "crfSdtmTarget": {
                    "annotation": "LBCLSIG",
                    "variables": [
                      "LBCLSIG"
                    ]
                  },
                  "crfSelectionType": "Single"
                }
              ],
              "coding": [
                {
                  "code": "C51946",
                  "codeSystem": "https://library.cdisc.org/api/mdr/bc/biomedicalconcepts",
                  "decode": "Erythrocyte Count"
                },
                {
                  "code": "RBCBLD",
                  "codeSystem": "https://library.cdisc.org/api/mdr/specializations/sdtm/datasetspecializations"
                },
                {
                  "code": "RBCBLD_DENORMALIZED",
                  "codeSystem": "https://library.cdisc.org/api/mdr/specializations/crf/specializations",
                  "codeSystemVersion": "2025-12-31"
                }
              ],
              "crfSpecializationRef": "/mdr/specializations/crf/specializations/RBCBLD_DENORMALIZED",
              "domain": "LB",
              "crfImplementationOption": "Denormalized",
              "crfScenario": "Local Processing",
              "implementsConcept": "CONC.BiomedicalConcept_62"
            },
            {
              "OID": "IG.CON.PLATBLD_DENORMALIZED",
              "name": "Platelet Count in Blood (Denormalized)",
              "label": "Platelet Count in Blood (Denormalized)",
              "type": "Concept",
              "repeating": "No",
              "mandatory": true,
              "standard": "STD.CDASHIG",
              "items": [
                {
                  "OID": "IT.CRF.PLAT_LBCAT",
                  "name": "PLAT_LBCAT",
                  "mandatory": false,
                  "dataType": "text",
                  "description": "Category for Lab Test",
                  "question": "What was the name of the lab panel?",
                  "prompt": "Lab Panel Name",
                  "crfCompletionInstructions": "Record the lab test category, if not preprinted on the CRF.",
                  "definition": "A grouping of topic-variable values based on user-defined characteristics.",
                  "implementationNotes": "Sponsor-defined controlled terminology. This would most commonly be either a heading or a preprinted category value on the CRF, and not a question to which the site would provide an answer. If a question is asked, the response would typically be a sponsor-defined codelist. If the form is laid out as a grid, then words such as \"Category\" can be included as the column heading. Laboratory tests have commonly recognized categories and subcategories that should be used whenever appropriate. LBCAT and or LBSCAT should be included if lab status (NOT DONE) is collected for each lab category (e.g., HEMATOLOGY, CHEMISTRY, URINALYSIS).",
                  "mappingInstructions": "Maps directly to the SDTMIG variable listed in the SDTMIG Target column.",
                  "length": 100,
                  "preSpecifiedValue": "HEMATOLOGY",
                  "origin": [
                    {
                      "type": "Protocol",
                      "source": "Sponsor"
                    }
                  ],
                  "aliases": [
                    {
                      "context": "CDASH",
                      "name": "LBCAT"
                    }
                  ],
                  "crfSdtmTarget": {
                    "annotation": "LBCAT = HEMATOLOGY",
                    "variables": [
                      "LBCAT"
                    ]
                  },
                  "crfDisplayHidden": true
                },
                {
                  "OID": "IT.CRF.PLAT_LBSCAT",
                  "name": "PLAT_LBSCAT",
                  "mandatory": false,
                  "dataType": "text",
                  "description": "Subcategory for Lab Test",
                  "question": "What was the name of the lab sub-panel?",
                  "prompt": "Lab Sub-Panel Name",
                  "crfCompletionInstructions": "Record the lab test subcategory, if not preprinted on the CRF.",
                  "definition": "A sub-division of the LBCAT values based on user defined characteristics.",
                  "implementationNotes": "Sponsor-defined controlled terminology. This would most commonly be either a heading or a preprinted category value on the CRF, and not a question to which the site would provide an answer. If a question is asked, the response would typically be a sponsor-defined codelist. If the form is laid out as a grid, then words such as \"Subcategory\" can be included as the column heading. Laboratory tests have commonly recognized categories and subcategories that should be used whenever appropriate. LBSCAT can only be used if there is an LBCAT, and it must be a subcategorization of LBCAT.",
                  "mappingInstructions": "Maps directly to the SDTMIG variable listed in the SDTMIG Target column.",
                  "length": 100,
                  "origin": [
                    {
                      "type": "Collected",
                      "source": "Investigator"
                    }
                  ],
                  "aliases": [
                    {
                      "context": "CDASH",
                      "name": "LBSCAT"
                    }
                  ],
                  "crfSdtmTarget": {
                    "annotation": "LBSCAT",
                    "variables": [
                      "LBSCAT"
                    ]
                  },
                  "crfDisplayHidden": true
                },
                {
                  "OID": "IT.CRF.PLAT_LBNAM",
                  "name": "PLAT_LBNAM",
                  "mandatory": false,
                  "dataType": "text",
                  "description": "Vendor Name",
                  "question": "What was the name of the laboratory used?",
                  "prompt": "Laboratory Name",
                  "crfCompletionInstructions": "Record the laboratory name.",
                  "definition": "The name or identifier of the vendor (e.g., laboratory) that provided the test results.",
                  "implementationNotes": "Recommended to collect on the CRF if lab name was not collected at the site/study level or if multiple labs are used by a site.",
                  "mappingInstructions": "Maps directly to the SDTMIG variable listed in the SDTMIG Target column.",
                  "length": 200,
                  "origin": [
                    {
                      "type": "Collected",
                      "source": "Investigator"
                    }
                  ],
                  "aliases": [
                    {
                      "context": "CDASH",
                      "name": "LBNAM"
                    }
                  ],
                  "crfSdtmTarget": {
                    "annotation": "LBNAM",
                    "variables": [
                      "LBNAM"
                    ]
                  }
                },
                {
                  "OID": "IT.CRF.PLAT_LBDAT",
                  "name": "PLAT_LBDAT",
                  "mandatory": false,
                  "dataType": "date",
                  "description": "Specimen Collection Date",
                  "question": "What was the (start) date of the lab specimen collection?",
                  "prompt": "Specimen Collection Date",
                  "crfCompletionInstructions": "Record the (start) date of specimen collection using this format (DD-MON-YYYY).",
                  "definition": "The date of specimen collection, represented in an unambiguous date format (e.g., DD-MON-YYYY).",
                  "implementationNotes": "A complete date is expected. The date of collection may be determined from the date of visit (VISDAT) and, if so, a separate assessment date field is not required. The SDTMIG LBDTC variable contains either a date/time when a specimen is collected at a point in time or the start date/time, when a specimen is collected over time.",
                  "mappingInstructions": "This does not map directly to an SDTMIG variable. For the SDTM submission dataset, concatenate all collected CDASH DATE and TIME components and populate the SDTMIG variable LBDTC in ISO 8601 format.",
                  "length": 10,
                  "origin": [
                    {
                      "type": "Collected",
                      "source": "Investigator"
                    }
                  ],
                  "coding": [
                    {
                      "code": "C82515",
                      "codeSystem": "http://www.cdisc.org"
                    }
                  ],
                  "conceptProperty": "CONCPROP.BiomedicalConceptProperty_251",
                  "aliases": [
                    {
                      "context": "CDASH",
                      "name": "LBDAT"
                    }
                  ],
                  "crfSdtmTarget": {
                    "annotation": "LBDTC",
                    "variables": [
                      "LBDTC"
                    ]
                  }
                },
                {
                  "OID": "IT.CRF.PLAT_LBSPEC",
                  "name": "PLAT_LBSPEC",
                  "mandatory": true,
                  "dataType": "text",
                  "description": "LB Specimen Type",
                  "question": "What is the specimen material type?",
                  "prompt": "Specimen Material",
                  "crfCompletionInstructions": "Record the specimen material type.",
                  "definition": "The type of sample material taken from a biological entity.",
                  "implementationNotes": "The type of specimen used for a measure. Should be collected if not available elsewhere, or if required to differentiate multiple specimens.",
                  "mappingInstructions": "Maps directly to the SDTMIG variable listed in the SDTMIG Target column.",
                  "length": 100,
                  "codeList": "CL.CDASH.C78734",
                  "preSpecifiedValue": "BLOOD",
                  "crfPrepopulatedCoding": {
                    "code": "C12434",
                    "codeSystem": "http://www.cdisc.org",
                    "decode": "BLOOD"
                  },
                  "origin": [
                    {
                      "type": "Protocol",
                      "source": "Sponsor"
                    }
                  ],
                  "coding": [
                    {
                      "code": "C70713",
                      "codeSystem": "http://www.cdisc.org"
                    }
                  ],
                  "conceptProperty": "CONCPROP.BiomedicalConceptProperty_279",
                  "aliases": [
                    {
                      "context": "CDASH",
                      "name": "LBSPEC"
                    }
                  ],
                  "crfSdtmTarget": {
                    "annotation": "LBSPEC = BLOOD",
                    "variables": [
                      "LBSPEC"
                    ]
                  }
                },
                {
                  "OID": "IT.CRF.PLAT_LBFAST",
                  "name": "PLAT_LBFAST",
                  "mandatory": false,
                  "dataType": "text",
                  "description": "Lab Fasting Status",
                  "question": "Was the subject fasting?",
                  "prompt": "Fasting",
                  "crfCompletionInstructions": "Record whether the subject was fasting prior to the test being performed.",
                  "definition": "An indication that the subject has abstained from food/water for the specified amount of time.",
                  "implementationNotes": "Results may be affected by whether the subject was fasting. This may not be relevant for all tests.",
                  "mappingInstructions": "Maps directly to the SDTMIG variable listed in the SDTMIG Target column.",
                  "length": 1,
                  "codeList": "CL.CDASH.C66742.PLATBLD_DENORMALIZED",
                  "origin": [
                    {
                      "type": "Collected",
                      "source": "Investigator"
                    }
                  ],
                  "coding": [
                    {
                      "code": "C93566",
                      "codeSystem": "http://www.cdisc.org"
                    }
                  ],
                  "conceptProperty": "CONCPROP.BiomedicalConceptProperty_280",
                  "aliases": [
                    {
                      "context": "CDASH",
                      "name": "LBFAST"
                    }
                  ],
                  "crfSdtmTarget": {
                    "annotation": "LBFAST",
                    "variables": [
                      "LBFAST"
                    ]
                  },
                  "crfSelectionType": "Single"
                },
                {
                  "OID": "IT.CRF.PLAT_LBORRES",
                  "name": "PLAT_LBORRES",
                  "mandatory": true,
                  "dataType": "float",
                  "description": "Lab Result or Finding in Original Units",
                  "question": "What was the result of the lab test?",
                  "prompt": "Platelets",
                  "crfCompletionInstructions": "Record the laboratory test result.",
                  "definition": "Result of the measurement or finding as originally received or collected.",
                  "implementationNotes": "Both quantitative results and interpretive findings or summaries may be recorded here.",
                  "mappingInstructions": "Maps directly to the SDTMIG variable listed in the SDTMIG Target column.",
                  "length": 8,
                  "unitsItem": "IT.CRF.PLAT_LBORRESU",
                  "origin": [
                    {
                      "type": "Collected",
                      "source": "Investigator"
                    }
                  ],
                  "coding": [
                    {
                      "code": "C70856",
                      "codeSystem": "http://www.cdisc.org"
                    }
                  ],
                  "conceptProperty": "CONCPROP.BiomedicalConceptProperty_252",
                  "aliases": [
                    {
                      "context": "CDASH",
                      "name": "LBORRES"
                    }
                  ],
                  "crfSdtmTarget": {
                    "annotation": "LBORRES when LBTESTCD = PLAT",
                    "variables": [
                      "LBORRES",
                      "LBTESTCD",
                      "LBTEST"
                    ]
                  }
                },
                {
                  "OID": "IT.CRF.PLAT_LBORRESU",
                  "name": "PLAT_LBORRESU",
                  "mandatory": true,
                  "dataType": "text",
                  "description": "Lab Original Units",
                  "question": "What was the unit of the lab result?",
                  "prompt": "Unit",
                  "crfCompletionInstructions": "Record or select the original unit in which these data were collected, if not preprinted on CRF.",
                  "definition": "The unit of the result as originally received or collected.",
                  "implementationNotes": "Should be preprinted on the CRF with the associated test when possible, rather than collected in a free-text field. Should be included if applicable and not available elsewhere. For some lab tests the units may not be applicable (e.g., urine color).",
                  "mappingInstructions": "Maps directly to the SDTMIG variable listed in the SDTMIG Target column.",
                  "length": 20,
                  "codeList": "CL.CDASH.C71620",
                  "preSpecifiedValue": "10^9/L",
                  "crfPrepopulatedCoding": {
                    "code": "C67255",
                    "codeSystem": "http://www.cdisc.org",
                    "decode": "10^9/L"
                  },
                  "origin": [
                    {
                      "type": "Protocol",
                      "source": "Sponsor"
                    }
                  ],
                  "coding": [
                    {
                      "code": "C67391",
                      "codeSystem": "http://www.cdisc.org"
                    }
                  ],
                  "conceptProperty": "CONCPROP.BiomedicalConceptProperty_381",
                  "aliases": [
                    {
                      "context": "CDASH",
                      "name": "LBORRESU"
                    }
                  ],
                  "crfSdtmTarget": {
                    "annotation": "LBORRESU = 10^9/L when LBTESTCD = PLAT",
                    "variables": [
                      "LBORRESU",
                      "LBTESTCD",
                      "LBTEST"
                    ]
                  }
                },
                {
                  "OID": "IT.CRF.PLAT_LBORNRLO",
                  "name": "PLAT_LBORNRLO",
                  "mandatory": false,
                  "dataType": "float",
                  "description": "Lab Ref Range Lower Limit in Orig Unit",
                  "question": "What was the lower limit of the reference range for this lab test?",
                  "prompt": "Normal Range Lower Limit",
                  "crfCompletionInstructions": "Record the lower limit of the reference range of the lab test.",
                  "definition": "The lower end of normal range or reference range for continuous results stored in LBORRES.",
                  "implementationNotes": "LBORNRLO and LBORNRHI should be populated only for continuous results; LBSTNRC should be populated only for non-continuous results. These data may be obtained from the lab or the electronic equipment. These data could be determined from a site or lab specific set of normal ranges stored in a look-up table. See the SDTMIG for details on mapping and selecting the proper variable name.",
                  "mappingInstructions": "Maps directly to the SDTMIG variable listed in the SDTMIG Target column.",
                  "length": 8,
                  "origin": [
                    {
                      "type": "Collected",
                      "source": "Investigator"
                    }
                  ],
                  "aliases": [
                    {
                      "context": "CDASH",
                      "name": "LBORNRLO"
                    }
                  ],
                  "crfSdtmTarget": {
                    "annotation": "LBORNRLO",
                    "variables": [
                      "LBORNRLO"
                    ]
                  }
                },
                {
                  "OID": "IT.CRF.PLAT_LBORNRHI",
                  "name": "PLAT_LBORNRHI",
                  "mandatory": false,
                  "dataType": "float",
                  "description": "Lab Ref Range Upper Limit in Orig Unit",
                  "question": "What was the high limit of the reference range for this lab test?",
                  "prompt": "Normal Range Upper Limit",
                  "crfCompletionInstructions": "Record the upper limit of the reference range of the lab test.",
                  "definition": "The upper end of normal range or reference range for continuous results stored in LBORRES.",
                  "implementationNotes": "LBORNRLO and LBORNRHI should be populated only for continuous results; LBSTNRC should be populated only for non-continuous results. These data may be obtained from the lab or the electronic equipment. These data could be determined from a site or lab specific set of normal ranges stored in a look-up table. See the SDTMIG for details on mapping and selecting the proper variable name.",
                  "mappingInstructions": "Maps directly to the SDTMIG variable listed in the SDTMIG Target column.",
                  "length": 8,
                  "origin": [
                    {
                      "type": "Collected",
                      "source": "Investigator"
                    }
                  ],
                  "aliases": [
                    {
                      "context": "CDASH",
                      "name": "LBORNRHI"
                    }
                  ],
                  "crfSdtmTarget": {
                    "annotation": "LBORNRHI",
                    "variables": [
                      "LBORNRHI"
                    ]
                  }
                },
                {
                  "OID": "IT.CRF.PLAT_LBCLSIG",
                  "name": "PLAT_LBCLSIG",
                  "mandatory": false,
                  "dataType": "text",
                  "description": "Lab Clinical Significance",
                  "question": "Was this result clinically significant?",
                  "prompt": "Clinically Significant",
                  "crfCompletionInstructions": "Record whether lab results were clinically significant.",
                  "definition": "An indication whether lab test results were clinically significant.",
                  "implementationNotes": "May be included if required by the protocol.",
                  "mappingInstructions": "Maps directly to the SDTMIG variable listed in the SDTMIG Target column.",
                  "length": 1,
                  "codeList": "CL.CDASH.C66742.PLATBLD_DENORMALIZED",
                  "origin": [
                    {
                      "type": "Collected",
                      "source": "Investigator"
                    }
                  ],
                  "aliases": [
                    {
                      "context": "CDASH",
                      "name": "LBCLSIG"
                    }
                  ],
                  "crfSdtmTarget": {
                    "annotation": "LBCLSIG",
                    "variables": [
                      "LBCLSIG"
                    ]
                  },
                  "crfSelectionType": "Single"
                }
              ],
              "coding": [
                {
                  "code": "C51951",
                  "codeSystem": "https://library.cdisc.org/api/mdr/bc/biomedicalconcepts",
                  "decode": "Platelet Count"
                },
                {
                  "code": "PLATBLD",
                  "codeSystem": "https://library.cdisc.org/api/mdr/specializations/sdtm/datasetspecializations"
                },
                {
                  "code": "PLATBLD_DENORMALIZED",
                  "codeSystem": "https://library.cdisc.org/api/mdr/specializations/crf/specializations",
                  "codeSystemVersion": "2025-12-31"
                }
              ],
              "crfSpecializationRef": "/mdr/specializations/crf/specializations/PLATBLD_DENORMALIZED",
              "domain": "LB",
              "crfImplementationOption": "Denormalized",
              "crfScenario": "Local Processing",
              "implementsConcept": "CONC.BiomedicalConcept_63"
            },
            {
              "OID": "IG.CON.HCTBLD_DENORMALIZED",
              "name": "Hematocrit of Blood (Denormalized)",
              "label": "Hematocrit of Blood (Denormalized)",
              "type": "Concept",
              "repeating": "No",
              "mandatory": true,
              "standard": "STD.CDASHIG",
              "items": [
                {
                  "OID": "IT.CRF.HCT_LBCAT",
                  "name": "HCT_LBCAT",
                  "mandatory": false,
                  "dataType": "text",
                  "description": "Category for Lab Test",
                  "question": "What was the name of the lab panel?",
                  "prompt": "Lab Panel Name",
                  "crfCompletionInstructions": "Record the lab test category, if not preprinted on the CRF.",
                  "definition": "A grouping of topic-variable values based on user-defined characteristics.",
                  "implementationNotes": "Sponsor-defined controlled terminology. This would most commonly be either a heading or a preprinted category value on the CRF, and not a question to which the site would provide an answer. If a question is asked, the response would typically be a sponsor-defined codelist. If the form is laid out as a grid, then words such as \"Category\" can be included as the column heading. Laboratory tests have commonly recognized categories and subcategories that should be used whenever appropriate. LBCAT and or LBSCAT should be included if lab status (NOT DONE) is collected for each lab category (e.g., HEMATOLOGY, CHEMISTRY, URINALYSIS).",
                  "mappingInstructions": "Maps directly to the SDTMIG variable listed in the SDTMIG Target column.",
                  "length": 100,
                  "preSpecifiedValue": "HEMATOLOGY",
                  "origin": [
                    {
                      "type": "Protocol",
                      "source": "Sponsor"
                    }
                  ],
                  "aliases": [
                    {
                      "context": "CDASH",
                      "name": "LBCAT"
                    }
                  ],
                  "crfSdtmTarget": {
                    "annotation": "LBCAT = HEMATOLOGY",
                    "variables": [
                      "LBCAT"
                    ]
                  },
                  "crfDisplayHidden": true
                },
                {
                  "OID": "IT.CRF.HCT_LBSCAT",
                  "name": "HCT_LBSCAT",
                  "mandatory": false,
                  "dataType": "text",
                  "description": "Subcategory for Lab Test",
                  "question": "What was the name of the lab sub-panel?",
                  "prompt": "Lab Sub-Panel Name",
                  "crfCompletionInstructions": "Record the lab test subcategory, if not preprinted on the CRF.",
                  "definition": "A sub-division of the LBCAT values based on user defined characteristics.",
                  "implementationNotes": "Sponsor-defined controlled terminology. This would most commonly be either a heading or a preprinted category value on the CRF, and not a question to which the site would provide an answer. If a question is asked, the response would typically be a sponsor-defined codelist. If the form is laid out as a grid, then words such as \"Subcategory\" can be included as the column heading. Laboratory tests have commonly recognized categories and subcategories that should be used whenever appropriate. LBSCAT can only be used if there is an LBCAT, and it must be a subcategorization of LBCAT.",
                  "mappingInstructions": "Maps directly to the SDTMIG variable listed in the SDTMIG Target column.",
                  "length": 100,
                  "origin": [
                    {
                      "type": "Collected",
                      "source": "Investigator"
                    }
                  ],
                  "aliases": [
                    {
                      "context": "CDASH",
                      "name": "LBSCAT"
                    }
                  ],
                  "crfSdtmTarget": {
                    "annotation": "LBSCAT",
                    "variables": [
                      "LBSCAT"
                    ]
                  },
                  "crfDisplayHidden": true
                },
                {
                  "OID": "IT.CRF.HCT_LBNAM",
                  "name": "HCT_LBNAM",
                  "mandatory": false,
                  "dataType": "text",
                  "description": "Vendor Name",
                  "question": "What was the name of the laboratory used?",
                  "prompt": "Laboratory Name",
                  "crfCompletionInstructions": "Record the laboratory name.",
                  "definition": "The name or identifier of the vendor (e.g., laboratory) that provided the test results.",
                  "implementationNotes": "Recommended to collect on the CRF if lab name was not collected at the site/study level or if multiple labs are used by a site.",
                  "mappingInstructions": "Maps directly to the SDTMIG variable listed in the SDTMIG Target column.",
                  "length": 200,
                  "origin": [
                    {
                      "type": "Collected",
                      "source": "Investigator"
                    }
                  ],
                  "aliases": [
                    {
                      "context": "CDASH",
                      "name": "LBNAM"
                    }
                  ],
                  "crfSdtmTarget": {
                    "annotation": "LBNAM",
                    "variables": [
                      "LBNAM"
                    ]
                  }
                },
                {
                  "OID": "IT.CRF.HCT_LBDAT",
                  "name": "HCT_LBDAT",
                  "mandatory": false,
                  "dataType": "date",
                  "description": "Specimen Collection Date",
                  "question": "What was the (start) date of the lab specimen collection?",
                  "prompt": "Specimen Collection Date",
                  "crfCompletionInstructions": "Record the (start) date of specimen collection using this format (DD-MON-YYYY).",
                  "definition": "The date of specimen collection, represented in an unambiguous date format (e.g., DD-MON-YYYY).",
                  "implementationNotes": "A complete date is expected. The date of collection may be determined from the date of visit (VISDAT) and, if so, a separate assessment date field is not required. The SDTMIG LBDTC variable contains either a date/time when a specimen is collected at a point in time or the start date/time, when a specimen is collected over time.",
                  "mappingInstructions": "This does not map directly to an SDTMIG variable. For the SDTM submission dataset, concatenate all collected CDASH DATE and TIME components and populate the SDTMIG variable LBDTC in ISO 8601 format.",
                  "length": 10,
                  "origin": [
                    {
                      "type": "Collected",
                      "source": "Investigator"
                    }
                  ],
                  "coding": [
                    {
                      "code": "C82515",
                      "codeSystem": "http://www.cdisc.org"
                    }
                  ],
                  "conceptProperty": "CONCPROP.BiomedicalConceptProperty_251",
                  "aliases": [
                    {
                      "context": "CDASH",
                      "name": "LBDAT"
                    }
                  ],
                  "crfSdtmTarget": {
                    "annotation": "LBDTC",
                    "variables": [
                      "LBDTC"
                    ]
                  }
                },
                {
                  "OID": "IT.CRF.HCT_LBSPEC",
                  "name": "HCT_LBSPEC",
                  "mandatory": true,
                  "dataType": "text",
                  "description": "LB Specimen Type",
                  "question": "What is the specimen material type?",
                  "prompt": "Specimen Material",
                  "crfCompletionInstructions": "Record the specimen material type.",
                  "definition": "The type of sample material taken from a biological entity.",
                  "implementationNotes": "The type of specimen used for a measure. Should be collected if not available elsewhere, or if required to differentiate multiple specimens.",
                  "mappingInstructions": "Maps directly to the SDTMIG variable listed in the SDTMIG Target column.",
                  "length": 100,
                  "codeList": "CL.CDASH.C78734",
                  "preSpecifiedValue": "BLOOD",
                  "crfPrepopulatedCoding": {
                    "code": "C12434",
                    "codeSystem": "http://www.cdisc.org",
                    "decode": "BLOOD"
                  },
                  "origin": [
                    {
                      "type": "Protocol",
                      "source": "Sponsor"
                    }
                  ],
                  "coding": [
                    {
                      "code": "C70713",
                      "codeSystem": "http://www.cdisc.org"
                    }
                  ],
                  "conceptProperty": "CONCPROP.BiomedicalConceptProperty_279",
                  "aliases": [
                    {
                      "context": "CDASH",
                      "name": "LBSPEC"
                    }
                  ],
                  "crfSdtmTarget": {
                    "annotation": "LBSPEC = BLOOD",
                    "variables": [
                      "LBSPEC"
                    ]
                  }
                },
                {
                  "OID": "IT.CRF.HCT_LBFAST",
                  "name": "HCT_LBFAST",
                  "mandatory": false,
                  "dataType": "text",
                  "description": "Lab Fasting Status",
                  "question": "Was the subject fasting?",
                  "prompt": "Fasting",
                  "crfCompletionInstructions": "Record whether the subject was fasting prior to the test being performed.",
                  "definition": "An indication that the subject has abstained from food/water for the specified amount of time.",
                  "implementationNotes": "Results may be affected by whether the subject was fasting. This may not be relevant for all tests.",
                  "mappingInstructions": "Maps directly to the SDTMIG variable listed in the SDTMIG Target column.",
                  "length": 1,
                  "codeList": "CL.CDASH.C66742.HCTBLD_DENORMALIZED",
                  "origin": [
                    {
                      "type": "Collected",
                      "source": "Investigator"
                    }
                  ],
                  "coding": [
                    {
                      "code": "C93566",
                      "codeSystem": "http://www.cdisc.org"
                    }
                  ],
                  "conceptProperty": "CONCPROP.BiomedicalConceptProperty_280",
                  "aliases": [
                    {
                      "context": "CDASH",
                      "name": "LBFAST"
                    }
                  ],
                  "crfSdtmTarget": {
                    "annotation": "LBFAST",
                    "variables": [
                      "LBFAST"
                    ]
                  },
                  "crfSelectionType": "Single"
                },
                {
                  "OID": "IT.CRF.HCT_LBORRES",
                  "name": "HCT_LBORRES",
                  "mandatory": true,
                  "dataType": "float",
                  "description": "Lab Result or Finding in Original Units",
                  "question": "What was the result of the lab test?",
                  "prompt": "Hematocrit",
                  "crfCompletionInstructions": "Record the laboratory test result.",
                  "definition": "Result of the measurement or finding as originally received or collected.",
                  "implementationNotes": "Both quantitative results and interpretive findings or summaries may be recorded here.",
                  "mappingInstructions": "Maps directly to the SDTMIG variable listed in the SDTMIG Target column.",
                  "length": 8,
                  "unitsItem": "IT.CRF.HCT_LBORRESU",
                  "origin": [
                    {
                      "type": "Collected",
                      "source": "Investigator"
                    }
                  ],
                  "coding": [
                    {
                      "code": "C70856",
                      "codeSystem": "http://www.cdisc.org"
                    }
                  ],
                  "conceptProperty": "CONCPROP.BiomedicalConceptProperty_252",
                  "aliases": [
                    {
                      "context": "CDASH",
                      "name": "LBORRES"
                    }
                  ],
                  "crfSdtmTarget": {
                    "annotation": "LBORRES when LBTESTCD = HCT",
                    "variables": [
                      "LBORRES",
                      "LBTESTCD",
                      "LBTEST"
                    ]
                  }
                },
                {
                  "OID": "IT.CRF.HCT_LBORRESU",
                  "name": "HCT_LBORRESU",
                  "mandatory": true,
                  "dataType": "text",
                  "description": "Lab Original Units",
                  "question": "What was the unit of the lab result?",
                  "prompt": "Unit",
                  "crfCompletionInstructions": "Record or select the original unit in which these data were collected, if not preprinted on CRF.",
                  "definition": "The unit of the result as originally received or collected.",
                  "implementationNotes": "Should be preprinted on the CRF with the associated test when possible, rather than collected in a free-text field. Should be included if applicable and not available elsewhere. For some lab tests the units may not be applicable (e.g., urine color).",
                  "mappingInstructions": "Maps directly to the SDTMIG variable listed in the SDTMIG Target column.",
                  "length": 20,
                  "codeList": "CL.CDASH.C71620",
                  "preSpecifiedValue": "%",
                  "crfPrepopulatedCoding": {
                    "code": "C25613",
                    "codeSystem": "http://www.cdisc.org",
                    "decode": "%"
                  },
                  "origin": [
                    {
                      "type": "Protocol",
                      "source": "Sponsor"
                    }
                  ],
                  "coding": [
                    {
                      "code": "C69174",
                      "codeSystem": "http://www.cdisc.org"
                    }
                  ],
                  "conceptProperty": "CONCPROP.BiomedicalConceptProperty_585",
                  "aliases": [
                    {
                      "context": "CDASH",
                      "name": "LBORRESU"
                    }
                  ],
                  "crfSdtmTarget": {
                    "annotation": "LBORRESU = % when LBTESTCD = HCT",
                    "variables": [
                      "LBORRESU",
                      "LBTESTCD",
                      "LBTEST"
                    ]
                  }
                },
                {
                  "OID": "IT.CRF.HCT_LBORNRLO",
                  "name": "HCT_LBORNRLO",
                  "mandatory": false,
                  "dataType": "float",
                  "description": "Lab Ref Range Lower Limit in Orig Unit",
                  "question": "What was the lower limit of the reference range for this lab test?",
                  "prompt": "Normal Range Lower Limit",
                  "crfCompletionInstructions": "Record the lower limit of the reference range of the lab test.",
                  "definition": "The lower end of normal range or reference range for continuous results stored in LBORRES.",
                  "implementationNotes": "LBORNRLO and LBORNRHI should be populated only for continuous results; LBSTNRC should be populated only for non-continuous results. These data may be obtained from the lab or the electronic equipment. These data could be determined from a site or lab specific set of normal ranges stored in a look-up table. See the SDTMIG for details on mapping and selecting the proper variable name.",
                  "mappingInstructions": "Maps directly to the SDTMIG variable listed in the SDTMIG Target column.",
                  "length": 8,
                  "origin": [
                    {
                      "type": "Collected",
                      "source": "Investigator"
                    }
                  ],
                  "aliases": [
                    {
                      "context": "CDASH",
                      "name": "LBORNRLO"
                    }
                  ],
                  "crfSdtmTarget": {
                    "annotation": "LBORNRLO",
                    "variables": [
                      "LBORNRLO"
                    ]
                  }
                },
                {
                  "OID": "IT.CRF.HCT_LBORNRHI",
                  "name": "HCT_LBORNRHI",
                  "mandatory": false,
                  "dataType": "float",
                  "description": "Lab Ref Range Upper Limit in Orig Unit",
                  "question": "What was the high limit of the reference range for this lab test?",
                  "prompt": "Normal Range Upper Limit",
                  "crfCompletionInstructions": "Record the upper limit of the reference range of the lab test.",
                  "definition": "The upper end of normal range or reference range for continuous results stored in LBORRES.",
                  "implementationNotes": "LBORNRLO and LBORNRHI should be populated only for continuous results; LBSTNRC should be populated only for non-continuous results. These data may be obtained from the lab or the electronic equipment. These data could be determined from a site or lab specific set of normal ranges stored in a look-up table. See the SDTMIG for details on mapping and selecting the proper variable name.",
                  "mappingInstructions": "Maps directly to the SDTMIG variable listed in the SDTMIG Target column.",
                  "length": 8,
                  "origin": [
                    {
                      "type": "Collected",
                      "source": "Investigator"
                    }
                  ],
                  "aliases": [
                    {
                      "context": "CDASH",
                      "name": "LBORNRHI"
                    }
                  ],
                  "crfSdtmTarget": {
                    "annotation": "LBORNRHI",
                    "variables": [
                      "LBORNRHI"
                    ]
                  }
                },
                {
                  "OID": "IT.CRF.HCT_LBCLSIG",
                  "name": "HCT_LBCLSIG",
                  "mandatory": false,
                  "dataType": "text",
                  "description": "Lab Clinical Significance",
                  "question": "Was this result clinically significant?",
                  "prompt": "Clinically Significant",
                  "crfCompletionInstructions": "Record whether lab results were clinically significant.",
                  "definition": "An indication whether lab test results were clinically significant.",
                  "implementationNotes": "May be included if required by the protocol.",
                  "mappingInstructions": "Maps directly to the SDTMIG variable listed in the SDTMIG Target column.",
                  "length": 1,
                  "codeList": "CL.CDASH.C66742.HCTBLD_DENORMALIZED",
                  "origin": [
                    {
                      "type": "Collected",
                      "source": "Investigator"
                    }
                  ],
                  "aliases": [
                    {
                      "context": "CDASH",
                      "name": "LBCLSIG"
                    }
                  ],
                  "crfSdtmTarget": {
                    "annotation": "LBCLSIG",
                    "variables": [
                      "LBCLSIG"
                    ]
                  },
                  "crfSelectionType": "Single"
                }
              ],
              "coding": [
                {
                  "code": "C64796",
                  "codeSystem": "https://library.cdisc.org/api/mdr/bc/biomedicalconcepts",
                  "decode": "Hematocrit Measurement"
                },
                {
                  "code": "HCTBLD",
                  "codeSystem": "https://library.cdisc.org/api/mdr/specializations/sdtm/datasetspecializations"
                },
                {
                  "code": "HCTBLD_DENORMALIZED",
                  "codeSystem": "https://library.cdisc.org/api/mdr/specializations/crf/specializations",
                  "codeSystemVersion": "2025-12-31"
                }
              ],
              "crfSpecializationRef": "/mdr/specializations/crf/specializations/HCTBLD_DENORMALIZED",
              "domain": "LB",
              "crfImplementationOption": "Denormalized",
              "crfScenario": "Local Processing",
              "implementsConcept": "CONC.BiomedicalConcept_99"
            },
            {
              "OID": "IG.CON.HGBBLD_DENORMALIZED",
              "name": "Hemoglobin Concentration in Blood (Denormalized)",
              "label": "Hemoglobin Concentration in Blood (Denormalized)",
              "type": "Concept",
              "repeating": "No",
              "mandatory": true,
              "standard": "STD.CDASHIG",
              "items": [
                {
                  "OID": "IT.CRF.HGB_LBCAT",
                  "name": "HGB_LBCAT",
                  "mandatory": false,
                  "dataType": "text",
                  "description": "Category for Lab Test",
                  "question": "What was the name of the lab panel?",
                  "prompt": "Lab Panel Name",
                  "crfCompletionInstructions": "Record the lab test category, if not preprinted on the CRF.",
                  "definition": "A grouping of topic-variable values based on user-defined characteristics.",
                  "implementationNotes": "Sponsor-defined controlled terminology. This would most commonly be either a heading or a preprinted category value on the CRF, and not a question to which the site would provide an answer. If a question is asked, the response would typically be a sponsor-defined codelist. If the form is laid out as a grid, then words such as \"Category\" can be included as the column heading. Laboratory tests have commonly recognized categories and subcategories that should be used whenever appropriate. LBCAT and or LBSCAT should be included if lab status (NOT DONE) is collected for each lab category (e.g., HEMATOLOGY, CHEMISTRY, URINALYSIS).",
                  "mappingInstructions": "Maps directly to the SDTMIG variable listed in the SDTMIG Target column.",
                  "length": 100,
                  "preSpecifiedValue": "HEMATOLOGY",
                  "origin": [
                    {
                      "type": "Protocol",
                      "source": "Sponsor"
                    }
                  ],
                  "aliases": [
                    {
                      "context": "CDASH",
                      "name": "LBCAT"
                    }
                  ],
                  "crfSdtmTarget": {
                    "annotation": "LBCAT = HEMATOLOGY",
                    "variables": [
                      "LBCAT"
                    ]
                  },
                  "crfDisplayHidden": true
                },
                {
                  "OID": "IT.CRF.HGB_LBSCAT",
                  "name": "HGB_LBSCAT",
                  "mandatory": false,
                  "dataType": "text",
                  "description": "Subcategory for Lab Test",
                  "question": "What was the name of the lab sub-panel?",
                  "prompt": "Lab Sub-Panel Name",
                  "crfCompletionInstructions": "Record the lab test subcategory, if not preprinted on the CRF.",
                  "definition": "A sub-division of the LBCAT values based on user defined characteristics.",
                  "implementationNotes": "Sponsor-defined controlled terminology. This would most commonly be either a heading or a preprinted category value on the CRF, and not a question to which the site would provide an answer. If a question is asked, the response would typically be a sponsor-defined codelist. If the form is laid out as a grid, then words such as \"Subcategory\" can be included as the column heading. Laboratory tests have commonly recognized categories and subcategories that should be used whenever appropriate. LBSCAT can only be used if there is an LBCAT, and it must be a subcategorization of LBCAT.",
                  "mappingInstructions": "Maps directly to the SDTMIG variable listed in the SDTMIG Target column.",
                  "length": 100,
                  "origin": [
                    {
                      "type": "Collected",
                      "source": "Investigator"
                    }
                  ],
                  "aliases": [
                    {
                      "context": "CDASH",
                      "name": "LBSCAT"
                    }
                  ],
                  "crfSdtmTarget": {
                    "annotation": "LBSCAT",
                    "variables": [
                      "LBSCAT"
                    ]
                  },
                  "crfDisplayHidden": true
                },
                {
                  "OID": "IT.CRF.HGB_LBNAM",
                  "name": "HGB_LBNAM",
                  "mandatory": false,
                  "dataType": "text",
                  "description": "Vendor Name",
                  "question": "What was the name of the laboratory used?",
                  "prompt": "Laboratory Name",
                  "crfCompletionInstructions": "Record the laboratory name.",
                  "definition": "The name or identifier of the vendor (e.g., laboratory) that provided the test results.",
                  "implementationNotes": "Recommended to collect on the CRF if lab name was not collected at the site/study level or if multiple labs are used by a site.",
                  "mappingInstructions": "Maps directly to the SDTMIG variable listed in the SDTMIG Target column.",
                  "length": 200,
                  "origin": [
                    {
                      "type": "Collected",
                      "source": "Investigator"
                    }
                  ],
                  "aliases": [
                    {
                      "context": "CDASH",
                      "name": "LBNAM"
                    }
                  ],
                  "crfSdtmTarget": {
                    "annotation": "LBNAM",
                    "variables": [
                      "LBNAM"
                    ]
                  }
                },
                {
                  "OID": "IT.CRF.HGB_LBDAT",
                  "name": "HGB_LBDAT",
                  "mandatory": false,
                  "dataType": "date",
                  "description": "Specimen Collection Date",
                  "question": "What was the (start) date of the lab specimen collection?",
                  "prompt": "Specimen Collection Date",
                  "crfCompletionInstructions": "Record the (start) date of specimen collection using this format (DD-MON-YYYY).",
                  "definition": "The date of specimen collection, represented in an unambiguous date format (e.g., DD-MON-YYYY).",
                  "implementationNotes": "A complete date is expected. The date of collection may be determined from the date of visit (VISDAT) and, if so, a separate assessment date field is not required. The SDTMIG LBDTC variable contains either a date/time when a specimen is collected at a point in time or the start date/time, when a specimen is collected over time.",
                  "mappingInstructions": "This does not map directly to an SDTMIG variable. For the SDTM submission dataset, concatenate all collected CDASH DATE and TIME components and populate the SDTMIG variable LBDTC in ISO 8601 format.",
                  "length": 10,
                  "origin": [
                    {
                      "type": "Collected",
                      "source": "Investigator"
                    }
                  ],
                  "coding": [
                    {
                      "code": "C82515",
                      "codeSystem": "http://www.cdisc.org"
                    }
                  ],
                  "conceptProperty": "CONCPROP.BiomedicalConceptProperty_251",
                  "aliases": [
                    {
                      "context": "CDASH",
                      "name": "LBDAT"
                    }
                  ],
                  "crfSdtmTarget": {
                    "annotation": "LBDTC",
                    "variables": [
                      "LBDTC"
                    ]
                  }
                },
                {
                  "OID": "IT.CRF.HGB_LBSPEC",
                  "name": "HGB_LBSPEC",
                  "mandatory": true,
                  "dataType": "text",
                  "description": "LB Specimen Type",
                  "question": "What is the specimen material type?",
                  "prompt": "Specimen Material",
                  "crfCompletionInstructions": "Record the specimen material type.",
                  "definition": "The type of sample material taken from a biological entity.",
                  "implementationNotes": "The type of specimen used for a measure. Should be collected if not available elsewhere, or if required to differentiate multiple specimens.",
                  "mappingInstructions": "Maps directly to the SDTMIG variable listed in the SDTMIG Target column.",
                  "length": 100,
                  "codeList": "CL.CDASH.C78734",
                  "preSpecifiedValue": "BLOOD",
                  "crfPrepopulatedCoding": {
                    "code": "C12434",
                    "codeSystem": "http://www.cdisc.org",
                    "decode": "BLOOD"
                  },
                  "origin": [
                    {
                      "type": "Protocol",
                      "source": "Sponsor"
                    }
                  ],
                  "coding": [
                    {
                      "code": "C70713",
                      "codeSystem": "http://www.cdisc.org"
                    }
                  ],
                  "conceptProperty": "CONCPROP.BiomedicalConceptProperty_279",
                  "aliases": [
                    {
                      "context": "CDASH",
                      "name": "LBSPEC"
                    }
                  ],
                  "crfSdtmTarget": {
                    "annotation": "LBSPEC = BLOOD",
                    "variables": [
                      "LBSPEC"
                    ]
                  }
                },
                {
                  "OID": "IT.CRF.HGB_LBFAST",
                  "name": "HGB_LBFAST",
                  "mandatory": false,
                  "dataType": "text",
                  "description": "Lab Fasting Status",
                  "question": "Was the subject fasting?",
                  "prompt": "Fasting",
                  "crfCompletionInstructions": "Record whether the subject was fasting prior to the test being performed.",
                  "definition": "An indication that the subject has abstained from food/water for the specified amount of time.",
                  "implementationNotes": "Results may be affected by whether the subject was fasting. This may not be relevant for all tests.",
                  "mappingInstructions": "Maps directly to the SDTMIG variable listed in the SDTMIG Target column.",
                  "length": 1,
                  "codeList": "CL.CDASH.C66742.HGBBLD_DENORMALIZED",
                  "origin": [
                    {
                      "type": "Collected",
                      "source": "Investigator"
                    }
                  ],
                  "coding": [
                    {
                      "code": "C93566",
                      "codeSystem": "http://www.cdisc.org"
                    }
                  ],
                  "conceptProperty": "CONCPROP.BiomedicalConceptProperty_280",
                  "aliases": [
                    {
                      "context": "CDASH",
                      "name": "LBFAST"
                    }
                  ],
                  "crfSdtmTarget": {
                    "annotation": "LBFAST",
                    "variables": [
                      "LBFAST"
                    ]
                  },
                  "crfSelectionType": "Single"
                },
                {
                  "OID": "IT.CRF.HGB_LBORRES",
                  "name": "HGB_LBORRES",
                  "mandatory": true,
                  "dataType": "float",
                  "description": "Lab Result or Finding in Original Units",
                  "question": "What was the result of the lab test?",
                  "prompt": "Hemoglobin",
                  "crfCompletionInstructions": "Record the laboratory test result.",
                  "definition": "Result of the measurement or finding as originally received or collected.",
                  "implementationNotes": "Both quantitative results and interpretive findings or summaries may be recorded here.",
                  "mappingInstructions": "Maps directly to the SDTMIG variable listed in the SDTMIG Target column.",
                  "length": 8,
                  "unitsItem": "IT.CRF.HGB_LBORRESU",
                  "origin": [
                    {
                      "type": "Collected",
                      "source": "Investigator"
                    }
                  ],
                  "coding": [
                    {
                      "code": "C70856",
                      "codeSystem": "http://www.cdisc.org"
                    }
                  ],
                  "conceptProperty": "CONCPROP.BiomedicalConceptProperty_252",
                  "aliases": [
                    {
                      "context": "CDASH",
                      "name": "LBORRES"
                    }
                  ],
                  "crfSdtmTarget": {
                    "annotation": "LBORRES when LBTESTCD = HGB",
                    "variables": [
                      "LBORRES",
                      "LBTESTCD",
                      "LBTEST"
                    ]
                  }
                },
                {
                  "OID": "IT.CRF.HGB_LBORRESU",
                  "name": "HGB_LBORRESU",
                  "mandatory": true,
                  "dataType": "text",
                  "description": "Lab Original Units",
                  "question": "What was the unit of the lab result?",
                  "prompt": "Unit",
                  "crfCompletionInstructions": "Record or select the original unit in which these data were collected, if not preprinted on CRF.",
                  "definition": "The unit of the result as originally received or collected.",
                  "implementationNotes": "Should be preprinted on the CRF with the associated test when possible, rather than collected in a free-text field. Should be included if applicable and not available elsewhere. For some lab tests the units may not be applicable (e.g., urine color).",
                  "mappingInstructions": "Maps directly to the SDTMIG variable listed in the SDTMIG Target column.",
                  "length": 20,
                  "codeList": "CL.CDASH.C71620.HGBBLD_DENORMALIZED",
                  "origin": [
                    {
                      "type": "Collected",
                      "source": "Investigator"
                    }
                  ],
                  "coding": [
                    {
                      "code": "C64571",
                      "codeSystem": "http://www.cdisc.org"
                    }
                  ],
                  "conceptProperty": "CONCPROP.BiomedicalConceptProperty_590",
                  "aliases": [
                    {
                      "context": "CDASH",
                      "name": "LBORRESU"
                    }
                  ],
                  "crfSdtmTarget": {
                    "annotation": "LBORRESU when LBTESTCD = HGB",
                    "variables": [
                      "LBORRESU",
                      "LBTESTCD",
                      "LBTEST"
                    ]
                  },
                  "crfSelectionType": "Single"
                },
                {
                  "OID": "IT.CRF.HGB_LBORNRLO",
                  "name": "HGB_LBORNRLO",
                  "mandatory": false,
                  "dataType": "float",
                  "description": "Lab Ref Range Lower Limit in Orig Unit",
                  "question": "What was the lower limit of the reference range for this lab test?",
                  "prompt": "Normal Range Lower Limit",
                  "crfCompletionInstructions": "Record the lower limit of the reference range of the lab test.",
                  "definition": "The lower end of normal range or reference range for continuous results stored in LBORRES.",
                  "implementationNotes": "LBORNRLO and LBORNRHI should be populated only for continuous results; LBSTNRC should be populated only for non-continuous results. These data may be obtained from the lab or the electronic equipment. These data could be determined from a site or lab specific set of normal ranges stored in a look-up table. See the SDTMIG for details on mapping and selecting the proper variable name.",
                  "mappingInstructions": "Maps directly to the SDTMIG variable listed in the SDTMIG Target column.",
                  "length": 8,
                  "origin": [
                    {
                      "type": "Collected",
                      "source": "Investigator"
                    }
                  ],
                  "aliases": [
                    {
                      "context": "CDASH",
                      "name": "LBORNRLO"
                    }
                  ],
                  "crfSdtmTarget": {
                    "annotation": "LBORNRLO",
                    "variables": [
                      "LBORNRLO"
                    ]
                  }
                },
                {
                  "OID": "IT.CRF.HGB_LBORNRHI",
                  "name": "HGB_LBORNRHI",
                  "mandatory": false,
                  "dataType": "float",
                  "description": "Lab Ref Range Upper Limit in Orig Unit",
                  "question": "What was the high limit of the reference range for this lab test?",
                  "prompt": "Normal Range Upper Limit",
                  "crfCompletionInstructions": "Record the upper limit of the reference range of the lab test.",
                  "definition": "The upper end of normal range or reference range for continuous results stored in LBORRES.",
                  "implementationNotes": "LBORNRLO and LBORNRHI should be populated only for continuous results; LBSTNRC should be populated only for non-continuous results. These data may be obtained from the lab or the electronic equipment. These data could be determined from a site or lab specific set of normal ranges stored in a look-up table. See the SDTMIG for details on mapping and selecting the proper variable name.",
                  "mappingInstructions": "Maps directly to the SDTMIG variable listed in the SDTMIG Target column.",
                  "length": 8,
                  "origin": [
                    {
                      "type": "Collected",
                      "source": "Investigator"
                    }
                  ],
                  "aliases": [
                    {
                      "context": "CDASH",
                      "name": "LBORNRHI"
                    }
                  ],
                  "crfSdtmTarget": {
                    "annotation": "LBORNRHI",
                    "variables": [
                      "LBORNRHI"
                    ]
                  }
                },
                {
                  "OID": "IT.CRF.HGB_LBCLSIG",
                  "name": "HGB_LBCLSIG",
                  "mandatory": false,
                  "dataType": "text",
                  "description": "Lab Clinical Significance",
                  "question": "Was this result clinically significant?",
                  "prompt": "Clinically Significant",
                  "crfCompletionInstructions": "Record whether lab results were clinically significant.",
                  "definition": "An indication whether lab test results were clinically significant.",
                  "implementationNotes": "May be included if required by the protocol.",
                  "mappingInstructions": "Maps directly to the SDTMIG variable listed in the SDTMIG Target column.",
                  "length": 1,
                  "codeList": "CL.CDASH.C66742.HGBBLD_DENORMALIZED",
                  "origin": [
                    {
                      "type": "Collected",
                      "source": "Investigator"
                    }
                  ],
                  "aliases": [
                    {
                      "context": "CDASH",
                      "name": "LBCLSIG"
                    }
                  ],
                  "crfSdtmTarget": {
                    "annotation": "LBCLSIG",
                    "variables": [
                      "LBCLSIG"
                    ]
                  },
                  "crfSelectionType": "Single"
                }
              ],
              "coding": [
                {
                  "code": "C64848",
                  "codeSystem": "https://library.cdisc.org/api/mdr/bc/biomedicalconcepts",
                  "decode": "Hemoglobin Measurement"
                },
                {
                  "code": "HGBBLD",
                  "codeSystem": "https://library.cdisc.org/api/mdr/specializations/sdtm/datasetspecializations"
                },
                {
                  "code": "HGBBLD_DENORMALIZED",
                  "codeSystem": "https://library.cdisc.org/api/mdr/specializations/crf/specializations",
                  "codeSystemVersion": "2025-12-31"
                }
              ],
              "crfSpecializationRef": "/mdr/specializations/crf/specializations/HGBBLD_DENORMALIZED",
              "domain": "LB",
              "crfImplementationOption": "Denormalized",
              "crfScenario": "Local Processing",
              "implementsConcept": "CONC.BiomedicalConcept_100"
            },
            {
              "OID": "IG.CON.MCH_DENORMALIZED",
              "name": "Erythrocyte Mean Corpuscular Hemoglobin (Denormalized)",
              "label": "Erythrocyte Mean Corpuscular Hemoglobin (Denormalized)",
              "type": "Concept",
              "repeating": "No",
              "mandatory": true,
              "standard": "STD.CDASHIG",
              "items": [
                {
                  "OID": "IT.CRF.MCH_LBCAT",
                  "name": "MCH_LBCAT",
                  "mandatory": false,
                  "dataType": "text",
                  "description": "Category for Lab Test",
                  "question": "What was the name of the lab panel?",
                  "prompt": "Lab Panel Name",
                  "crfCompletionInstructions": "Record the lab test category, if not preprinted on the CRF.",
                  "definition": "A grouping of topic-variable values based on user-defined characteristics.",
                  "implementationNotes": "Sponsor-defined controlled terminology. This would most commonly be either a heading or a preprinted category value on the CRF, and not a question to which the site would provide an answer. If a question is asked, the response would typically be a sponsor-defined codelist. If the form is laid out as a grid, then words such as \"Category\" can be included as the column heading. Laboratory tests have commonly recognized categories and subcategories that should be used whenever appropriate. LBCAT and or LBSCAT should be included if lab status (NOT DONE) is collected for each lab category (e.g., HEMATOLOGY, CHEMISTRY, URINALYSIS).",
                  "mappingInstructions": "Maps directly to the SDTMIG variable listed in the SDTMIG Target column.",
                  "length": 100,
                  "preSpecifiedValue": "HEMATOLOGY",
                  "origin": [
                    {
                      "type": "Protocol",
                      "source": "Sponsor"
                    }
                  ],
                  "aliases": [
                    {
                      "context": "CDASH",
                      "name": "LBCAT"
                    }
                  ],
                  "crfSdtmTarget": {
                    "annotation": "LBCAT = HEMATOLOGY",
                    "variables": [
                      "LBCAT"
                    ]
                  },
                  "crfDisplayHidden": true
                },
                {
                  "OID": "IT.CRF.MCH_LBSCAT",
                  "name": "MCH_LBSCAT",
                  "mandatory": false,
                  "dataType": "text",
                  "description": "Subcategory for Lab Test",
                  "question": "What was the name of the lab sub-panel?",
                  "prompt": "Lab Sub-Panel Name",
                  "crfCompletionInstructions": "Record the lab test subcategory, if not preprinted on the CRF.",
                  "definition": "A sub-division of the LBCAT values based on user defined characteristics.",
                  "implementationNotes": "Sponsor-defined controlled terminology. This would most commonly be either a heading or a preprinted category value on the CRF, and not a question to which the site would provide an answer. If a question is asked, the response would typically be a sponsor-defined codelist. If the form is laid out as a grid, then words such as \"Subcategory\" can be included as the column heading. Laboratory tests have commonly recognized categories and subcategories that should be used whenever appropriate. LBSCAT can only be used if there is an LBCAT, and it must be a subcategorization of LBCAT.",
                  "mappingInstructions": "Maps directly to the SDTMIG variable listed in the SDTMIG Target column.",
                  "length": 100,
                  "origin": [
                    {
                      "type": "Collected",
                      "source": "Investigator"
                    }
                  ],
                  "aliases": [
                    {
                      "context": "CDASH",
                      "name": "LBSCAT"
                    }
                  ],
                  "crfSdtmTarget": {
                    "annotation": "LBSCAT",
                    "variables": [
                      "LBSCAT"
                    ]
                  },
                  "crfDisplayHidden": true
                },
                {
                  "OID": "IT.CRF.MCH_LBNAM",
                  "name": "MCH_LBNAM",
                  "mandatory": false,
                  "dataType": "text",
                  "description": "Vendor Name",
                  "question": "What was the name of the laboratory used?",
                  "prompt": "Laboratory Name",
                  "crfCompletionInstructions": "Record the laboratory name.",
                  "definition": "The name or identifier of the vendor (e.g., laboratory) that provided the test results.",
                  "implementationNotes": "Recommended to collect on the CRF if lab name was not collected at the site/study level or if multiple labs are used by a site.",
                  "mappingInstructions": "Maps directly to the SDTMIG variable listed in the SDTMIG Target column.",
                  "length": 200,
                  "origin": [
                    {
                      "type": "Collected",
                      "source": "Investigator"
                    }
                  ],
                  "aliases": [
                    {
                      "context": "CDASH",
                      "name": "LBNAM"
                    }
                  ],
                  "crfSdtmTarget": {
                    "annotation": "LBNAM",
                    "variables": [
                      "LBNAM"
                    ]
                  }
                },
                {
                  "OID": "IT.CRF.MCH_LBDAT",
                  "name": "MCH_LBDAT",
                  "mandatory": false,
                  "dataType": "date",
                  "description": "Specimen Collection Date",
                  "question": "What was the (start) date of the lab specimen collection?",
                  "prompt": "Specimen Collection Date",
                  "crfCompletionInstructions": "Record the (start) date of specimen collection using this format (DD-MON-YYYY).",
                  "definition": "The date of specimen collection, represented in an unambiguous date format (e.g., DD-MON-YYYY).",
                  "implementationNotes": "A complete date is expected. The date of collection may be determined from the date of visit (VISDAT) and, if so, a separate assessment date field is not required. The SDTMIG LBDTC variable contains either a date/time when a specimen is collected at a point in time or the start date/time, when a specimen is collected over time.",
                  "mappingInstructions": "This does not map directly to an SDTMIG variable. For the SDTM submission dataset, concatenate all collected CDASH DATE and TIME components and populate the SDTMIG variable LBDTC in ISO 8601 format.",
                  "length": 10,
                  "origin": [
                    {
                      "type": "Collected",
                      "source": "Investigator"
                    }
                  ],
                  "coding": [
                    {
                      "code": "C82515",
                      "codeSystem": "http://www.cdisc.org"
                    }
                  ],
                  "conceptProperty": "CONCPROP.BiomedicalConceptProperty_251",
                  "aliases": [
                    {
                      "context": "CDASH",
                      "name": "LBDAT"
                    }
                  ],
                  "crfSdtmTarget": {
                    "annotation": "LBDTC",
                    "variables": [
                      "LBDTC"
                    ]
                  }
                },
                {
                  "OID": "IT.CRF.MCH_LBSPEC",
                  "name": "MCH_LBSPEC",
                  "mandatory": true,
                  "dataType": "text",
                  "description": "LB Specimen Type",
                  "question": "What is the specimen material type?",
                  "prompt": "Specimen Material",
                  "crfCompletionInstructions": "Record the specimen material type.",
                  "definition": "The type of sample material taken from a biological entity.",
                  "implementationNotes": "The type of specimen used for a measure. Should be collected if not available elsewhere, or if required to differentiate multiple specimens.",
                  "mappingInstructions": "Maps directly to the SDTMIG variable listed in the SDTMIG Target column.",
                  "length": 100,
                  "codeList": "CL.CDASH.C78734",
                  "preSpecifiedValue": "ERYTHROCYTES",
                  "crfPrepopulatedCoding": {
                    "code": "C12521",
                    "codeSystem": "http://www.cdisc.org",
                    "decode": "ERYTHROCYTES"
                  },
                  "origin": [
                    {
                      "type": "Protocol",
                      "source": "Sponsor"
                    }
                  ],
                  "coding": [
                    {
                      "code": "C70713",
                      "codeSystem": "http://www.cdisc.org"
                    }
                  ],
                  "conceptProperty": "CONCPROP.BiomedicalConceptProperty_279",
                  "aliases": [
                    {
                      "context": "CDASH",
                      "name": "LBSPEC"
                    }
                  ],
                  "crfSdtmTarget": {
                    "annotation": "LBSPEC = ERYTHROCYTES",
                    "variables": [
                      "LBSPEC"
                    ]
                  }
                },
                {
                  "OID": "IT.CRF.MCH_LBFAST",
                  "name": "MCH_LBFAST",
                  "mandatory": false,
                  "dataType": "text",
                  "description": "Lab Fasting Status",
                  "question": "Was the subject fasting?",
                  "prompt": "Fasting",
                  "crfCompletionInstructions": "Record whether the subject was fasting prior to the test being performed.",
                  "definition": "An indication that the subject has abstained from food/water for the specified amount of time.",
                  "implementationNotes": "Results may be affected by whether the subject was fasting. This may not be relevant for all tests.",
                  "mappingInstructions": "Maps directly to the SDTMIG variable listed in the SDTMIG Target column.",
                  "length": 1,
                  "codeList": "CL.CDASH.C66742.MCH_DENORMALIZED",
                  "origin": [
                    {
                      "type": "Collected",
                      "source": "Investigator"
                    }
                  ],
                  "coding": [
                    {
                      "code": "C93566",
                      "codeSystem": "http://www.cdisc.org"
                    }
                  ],
                  "conceptProperty": "CONCPROP.BiomedicalConceptProperty_280",
                  "aliases": [
                    {
                      "context": "CDASH",
                      "name": "LBFAST"
                    }
                  ],
                  "crfSdtmTarget": {
                    "annotation": "LBFAST",
                    "variables": [
                      "LBFAST"
                    ]
                  },
                  "crfSelectionType": "Single"
                },
                {
                  "OID": "IT.CRF.MCH_LBORRES",
                  "name": "MCH_LBORRES",
                  "mandatory": true,
                  "dataType": "float",
                  "description": "Lab Result or Finding in Original Units",
                  "question": "What was the result of the lab test?",
                  "prompt": "Ery. Mean Corpuscular Hemoglobin",
                  "crfCompletionInstructions": "Record the laboratory test result.",
                  "definition": "Result of the measurement or finding as originally received or collected.",
                  "implementationNotes": "Both quantitative results and interpretive findings or summaries may be recorded here.",
                  "mappingInstructions": "Maps directly to the SDTMIG variable listed in the SDTMIG Target column.",
                  "length": 8,
                  "unitsItem": "IT.CRF.MCH_LBORRESU",
                  "origin": [
                    {
                      "type": "Collected",
                      "source": "Investigator"
                    }
                  ],
                  "coding": [
                    {
                      "code": "C70856",
                      "codeSystem": "http://www.cdisc.org"
                    }
                  ],
                  "conceptProperty": "CONCPROP.BiomedicalConceptProperty_252",
                  "aliases": [
                    {
                      "context": "CDASH",
                      "name": "LBORRES"
                    }
                  ],
                  "crfSdtmTarget": {
                    "annotation": "LBORRES when LBTESTCD = MCH",
                    "variables": [
                      "LBORRES",
                      "LBTESTCD",
                      "LBTEST"
                    ]
                  }
                },
                {
                  "OID": "IT.CRF.MCH_LBORRESU",
                  "name": "MCH_LBORRESU",
                  "mandatory": true,
                  "dataType": "text",
                  "description": "Lab Original Units",
                  "question": "What was the unit of the lab result?",
                  "prompt": "Unit",
                  "crfCompletionInstructions": "Record or select the original unit in which these data were collected, if not preprinted on CRF.",
                  "definition": "The unit of the result as originally received or collected.",
                  "implementationNotes": "Should be preprinted on the CRF with the associated test when possible, rather than collected in a free-text field. Should be included if applicable and not available elsewhere. For some lab tests the units may not be applicable (e.g., urine color).",
                  "mappingInstructions": "Maps directly to the SDTMIG variable listed in the SDTMIG Target column.",
                  "length": 20,
                  "codeList": "CL.CDASH.C71620.MCH_DENORMALIZED",
                  "origin": [
                    {
                      "type": "Collected",
                      "source": "Investigator"
                    }
                  ],
                  "coding": [
                    {
                      "code": "C25709",
                      "codeSystem": "http://www.cdisc.org"
                    }
                  ],
                  "conceptProperty": "CONCPROP.BiomedicalConceptProperty_595",
                  "aliases": [
                    {
                      "context": "CDASH",
                      "name": "LBORRESU"
                    }
                  ],
                  "crfSdtmTarget": {
                    "annotation": "LBORRESU when LBTESTCD = MCH",
                    "variables": [
                      "LBORRESU",
                      "LBTESTCD",
                      "LBTEST"
                    ]
                  },
                  "crfSelectionType": "Single"
                },
                {
                  "OID": "IT.CRF.MCH_LBORNRLO",
                  "name": "MCH_LBORNRLO",
                  "mandatory": false,
                  "dataType": "float",
                  "description": "Lab Ref Range Lower Limit in Orig Unit",
                  "question": "What was the lower limit of the reference range for this lab test?",
                  "prompt": "Normal Range Lower Limit",
                  "crfCompletionInstructions": "Record the lower limit of the reference range of the lab test.",
                  "definition": "The lower end of normal range or reference range for continuous results stored in LBORRES.",
                  "implementationNotes": "LBORNRLO and LBORNRHI should be populated only for continuous results; LBSTNRC should be populated only for non-continuous results. These data may be obtained from the lab or the electronic equipment. These data could be determined from a site or lab specific set of normal ranges stored in a look-up table. See the SDTMIG for details on mapping and selecting the proper variable name.",
                  "mappingInstructions": "Maps directly to the SDTMIG variable listed in the SDTMIG Target column.",
                  "length": 8,
                  "origin": [
                    {
                      "type": "Collected",
                      "source": "Investigator"
                    }
                  ],
                  "aliases": [
                    {
                      "context": "CDASH",
                      "name": "LBORNRLO"
                    }
                  ],
                  "crfSdtmTarget": {
                    "annotation": "LBORNRLO",
                    "variables": [
                      "LBORNRLO"
                    ]
                  }
                },
                {
