{
  "OID": "MDV.NCT01797120.Version1.Design1",
  "name": "MDV NCT01797120",
  "description": "Data Definitions for NCT01797120",
  "fileOID": "ODM.DEFINE-JSON.NCT01797120.Version1.Design1",
  "creationDateTime": "2026-08-23T11:37:44.665432+00:00",
  "odmVersion": "1.3.2",
  "fileType": "Snapshot",
  "originator": "Define-JSON Processor",
  "context": "Other",
  "defineVersion": "2.1.0",
  "studyOID": "ODM.NCT01797120.Version1.Design1",
  "studyName": "NCT01797120",
  "studyDescription": "Randomized, Double-Blind, Placebo-Controlled Phase II Trial of Fulvestrant (Faslodex) plus Everolimus in Post-Menopausal Patients with Hormone-Receptor Positive Metastatic Breast Cancer Resistant to Aromatase Inhibitor Therapy",
  "protocolName": "NCT01797120",
  "itemGroups": [
    {
      "OID": "IG.DS",
      "name": "DS",
      "description": "Disposition",
      "domain": "DS",
      "purpose": "Tabulation",
      "structure": "One record per disposition status or protocol milestone per subject",
      "isReferenceData": false,
      "keySequence": [
        "__PLACEHOLDER__"
      ],
      "standard": "STD.SDTMIG",
      "observationClass": {
        "name": "EVENTS"
      },
      "items": [
        {
          "OID": "IT.DS.STUDYID",
          "mandatory": true,
          "name": "STUDYID",
          "description": "Study Identifier",
          "role": "Identifier",
          "dataType": "text",
          "length": null,
          "origin": [
            {
              "type": "__PLACEHOLDER__",
              "source": "__PLACEHOLDER__"
            }
          ]
        },
        {
          "OID": "IT.DS.DOMAIN",
          "mandatory": true,
          "name": "DOMAIN",
          "description": "Domain Abbreviation",
          "role": "Identifier",
          "dataType": "text",
          "length": null,
          "origin": [
            {
              "type": "__PLACEHOLDER__",
              "source": "__PLACEHOLDER__"
            }
          ]
        },
        {
          "OID": "IT.DS.USUBJID",
          "mandatory": true,
          "name": "USUBJID",
          "description": "Unique Subject Identifier",
          "role": "Identifier",
          "dataType": "text",
          "length": null,
          "origin": [
            {
              "type": "__PLACEHOLDER__",
              "source": "__PLACEHOLDER__"
            }
          ]
        },
        {
          "OID": "IT.DS.DSSEQ",
          "mandatory": true,
          "name": "DSSEQ",
          "description": "Sequence Number",
          "role": "Identifier",
          "dataType": "integer",
          "length": null,
          "origin": [
            {
              "type": "__PLACEHOLDER__",
              "source": "__PLACEHOLDER__"
            }
          ]
        },
        {
          "OID": "IT.DS.DSTERM",
          "mandatory": true,
          "name": "DSTERM",
          "description": "Reported Term for the Disposition Event",
          "role": "Topic",
          "dataType": "text",
          "length": 200,
          "origin": [
            {
              "type": "Collected",
              "source": "Investigator"
            }
          ]
        },
        {
          "OID": "IT.DS.DSDECOD",
          "mandatory": true,
          "name": "DSDECOD",
          "description": "Standardized Disposition Term",
          "role": "Synonym Qualifier",
          "dataType": "text",
          "length": 200
        },
        {
          "OID": "IT.DS.DSCAT",
          "mandatory": false,
          "name": "DSCAT",
          "description": "Category for Disposition Event",
          "role": "Grouping Qualifier",
          "dataType": "text",
          "length": 200,
          "origin": [
            {
              "type": "Assigned",
              "source": "Sponsor"
            }
          ],
          "codeList": "CL.DSCAT"
        },
        {
          "OID": "IT.DS.DSSTDTC",
          "mandatory": false,
          "name": "DSSTDTC",
          "description": "Start Date/Time of Disposition Event",
          "role": "Timing",
          "dataType": "datetime",
          "origin": [
            {
              "type": "Collected",
              "source": "Investigator"
            }
          ]
        },
        {
          "OID": "IT.DS.DSSTDY",
          "mandatory": false,
          "name": "DSSTDY",
          "description": "Study Day of Start of Disposition Event",
          "role": "Timing",
          "dataType": "integer",
          "length": null,
          "origin": [
            {
              "type": "__PLACEHOLDER__",
              "source": "__PLACEHOLDER__"
            }
          ]
        }
      ],
      "slices": [
        {
          "OID": "VL.DS.DSDECOD",
          "name": "VL_DS_DSDECOD",
          "type": "ValueList",
          "wasDerivedFrom": "IT.DS.DSDECOD",
          "items": [
            {
              "OID": "IT.DS.DSDECOD.PROTOCOL MILESTONE",
              "mandatory": false,
              "name": "DSDECOD",
              "dataType": "text",
              "length": 200,
              "codeList": "CL.PROTMLST",
              "origin": [
                {
                  "type": "Assigned",
                  "source": "Sponsor"
                }
              ],
              "applicableWhen": [
                "WC.DS.041996bd"
              ]
            },
            {
              "OID": "IT.DS.DSDECOD.PROTOCOL MILESTONE",
              "mandatory": false,
              "name": "DSDECOD",
              "dataType": "text",
              "length": 200,
              "codeList": "CL.PROTMLST",
              "origin": [
                {
                  "type": "Assigned",
                  "source": "Sponsor"
                }
              ],
              "applicableWhen": [
                "WC.DS.041996bd"
              ]
            }
          ]
        }
      ]
    },
    {
      "OID": "IG.RS",
      "name": "RS",
      "description": "Disease Response and Clin Classification",
      "domain": "RS",
      "purpose": "Tabulation",
      "structure": "One record per response assessment or clinical classification assessment per time point per visit per subject per assessor per medical evaluator",
      "isReferenceData": false,
      "keySequence": [
        "__PLACEHOLDER__"
      ],
      "standard": "STD.SDTMIG",
      "observationClass": {
        "name": "FINDINGS"
      },
      "items": [
        {
          "OID": "IT.RS.STUDYID",
          "mandatory": true,
          "name": "STUDYID",
          "description": "Study Identifier",
          "role": "Identifier",
          "dataType": "text",
          "length": null,
          "origin": [
            {
              "type": "__PLACEHOLDER__",
              "source": "__PLACEHOLDER__"
            }
          ]
        },
        {
          "OID": "IT.RS.DOMAIN",
          "mandatory": true,
          "name": "DOMAIN",
          "description": "Domain Abbreviation",
          "role": "Identifier",
          "dataType": "text",
          "length": null,
          "origin": [
            {
              "type": "__PLACEHOLDER__",
              "source": "__PLACEHOLDER__"
            }
          ]
        },
        {
          "OID": "IT.RS.USUBJID",
          "mandatory": true,
          "name": "USUBJID",
          "description": "Unique Subject Identifier",
          "role": "Identifier",
          "dataType": "text",
          "length": null,
          "origin": [
            {
              "type": "__PLACEHOLDER__",
              "source": "__PLACEHOLDER__"
            }
          ]
        },
        {
          "OID": "IT.RS.RSSEQ",
          "mandatory": true,
          "name": "RSSEQ",
          "description": "Sequence Number",
          "role": "Identifier",
          "dataType": "integer",
          "length": null,
          "origin": [
            {
              "type": "__PLACEHOLDER__",
              "source": "__PLACEHOLDER__"
            }
          ]
        },
        {
          "OID": "IT.RS.RSLNKGRP",
          "mandatory": false,
          "name": "RSLNKGRP",
          "description": "Link Group ID",
          "role": "Identifier",
          "dataType": "text",
          "length": null,
          "origin": [
            {
              "type": "Derived",
              "source": "Sponsor"
            }
          ]
        },
        {
          "OID": "IT.RS.RSTESTCD",
          "mandatory": true,
          "name": "RSTESTCD",
          "description": "Assessment Short Name",
          "role": "Topic",
          "dataType": "text",
          "length": null,
          "origin": [
            {
              "type": "__PLACEHOLDER__",
              "source": "__PLACEHOLDER__"
            }
          ],
          "codeList": "CL.ONCRTSCD"
        },
        {
          "OID": "IT.RS.RSTEST",
          "mandatory": true,
          "name": "RSTEST",
          "description": "Assessment Name",
          "role": "Synonym Qualifier",
          "dataType": "text",
          "length": null,
          "origin": [
            {
              "type": "__PLACEHOLDER__",
              "source": "__PLACEHOLDER__"
            }
          ],
          "codeList": "CL.ONCRTS"
        },
        {
          "OID": "IT.RS.RSCAT",
          "mandatory": false,
          "name": "RSCAT",
          "description": "Category for Assessment",
          "role": "Grouping Qualifier",
          "dataType": "text",
          "length": null,
          "origin": [
            {
              "type": "__PLACEHOLDER__",
              "source": "__PLACEHOLDER__"
            }
          ],
          "codeList": "CL.ONCRSCAT"
        },
        {
          "OID": "IT.RS.RSORRES",
          "mandatory": false,
          "name": "RSORRES",
          "description": "Result or Finding in Original Units",
          "role": "Result Qualifier",
          "dataType": "text",
          "length": 20
        },
        {
          "OID": "IT.RS.RSSTRESC",
          "mandatory": false,
          "name": "RSSTRESC",
          "description": "Character Result/Finding in Std Format",
          "role": "Result Qualifier",
          "dataType": "integer",
          "length": 1,
          "origin": [
            {
              "type": "Derived",
              "source": "Sponsor"
            }
          ],
          "codeList": "CL.ONCRSR"
        },
        {
          "OID": "IT.RS.RSSTRESN",
          "mandatory": false,
          "name": "RSSTRESN",
          "description": "Numeric Result/Finding in Standard Units",
          "role": "Result Qualifier",
          "dataType": "integer",
          "length": 1,
          "origin": [
            {
              "type": "Derived",
              "source": "Sponsor"
            }
          ]
        },
        {
          "OID": "IT.RS.RSEVAL",
          "mandatory": false,
          "name": "RSEVAL",
          "description": "Evaluator",
          "role": "Record Qualifier",
          "dataType": "text",
          "length": null,
          "origin": [
            {
              "type": "Assigned",
              "source": "Sponsor"
            }
          ],
          "codeList": "CL.EVAL"
        },
        {
          "OID": "IT.RS.RSEVALID",
          "mandatory": false,
          "name": "RSEVALID",
          "description": "Evaluator Identifier",
          "role": "Variable Qualifier",
          "dataType": "text",
          "length": null,
          "origin": [
            {
              "type": "Collected",
              "source": "Vendor"
            }
          ],
          "codeList": "CL.MEDEVAL"
        },
        {
          "OID": "IT.RS.VISITNUM",
          "mandatory": false,
          "name": "VISITNUM",
          "description": "Visit Number",
          "role": "Timing",
          "dataType": "integer",
          "length": null,
          "origin": [
            {
              "type": "__PLACEHOLDER__",
              "source": "__PLACEHOLDER__"
            }
          ]
        },
        {
          "OID": "IT.RS.RSDTC",
          "mandatory": false,
          "name": "RSDTC",
          "description": "Date/Time of Assessment",
          "role": "Timing",
          "dataType": "datetime",
          "origin": [
            {
              "type": "Collected",
              "source": "Investigator"
            }
          ]
        }
      ],
      "slices": [
        {
          "OID": "VL.RS.RSORRES",
          "name": "VL_RS_RSORRES",
          "type": "ValueList",
          "wasDerivedFrom": "IT.RS.RSORRES",
          "items": [
            {
              "OID": "IT.RS.RSORRES.ECOG101",
              "mandatory": false,
              "name": "RSORRES",
              "dataType": "text",
              "length": 20,
              "codeList": "CL.ECOG101OR",
              "origin": [
                {
                  "type": "Collected",
                  "source": "Investigator"
                }
              ],
              "applicableWhen": [
                "WC.RS.76636d45"
              ]
            },
            {
              "OID": "IT.RS.RSORRES.TRGRESP",
              "mandatory": false,
              "name": "RSORRES",
              "dataType": "text",
              "length": null,
              "codeList": "CL.ONCRSR",
              "origin": [
                {
                  "type": "Collected",
                  "source": "Investigator"
                }
              ],
              "applicableWhen": [
                "WC.RS.6fbdc306"
              ]
            },
            {
              "OID": "IT.RS.RSORRES.NTRGRESP",
              "mandatory": false,
              "name": "RSORRES",
              "dataType": "text",
              "length": null,
              "codeList": "CL.ONCRSR",
              "origin": [
                {
                  "type": "Collected",
                  "source": "Investigator"
                }
              ],
              "applicableWhen": [
                "WC.RS.e8fe804f"
              ]
            },
            {
              "OID": "IT.RS.RSORRES.OVRLRESP",
              "mandatory": false,
              "name": "RSORRES",
              "dataType": "text",
              "length": null,
              "codeList": "CL.ONCRSR",
              "origin": [
                {
                  "type": "Collected",
                  "source": "Investigator"
                }
              ],
              "applicableWhen": [
                "WC.RS.00176ff2"
              ]
            }
          ]
        }
      ]
    },
    {
      "OID": "IG.VS",
      "name": "VS",
      "description": "Vital Signs",
      "domain": "VS",
      "purpose": "Tabulation",
      "structure": "One record per vital sign measurement per time point per visit per subject",
      "isReferenceData": false,
      "keySequence": [
        "__PLACEHOLDER__"
      ],
      "standard": "STD.SDTMIG",
      "observationClass": {
        "name": "FINDINGS"
      },
      "items": [
        {
          "OID": "IT.VS.STUDYID",
          "mandatory": true,
          "name": "STUDYID",
          "description": "Study Identifier",
          "role": "Identifier",
          "dataType": "text",
          "length": null,
          "origin": [
            {
              "type": "__PLACEHOLDER__",
              "source": "__PLACEHOLDER__"
            }
          ]
        },
        {
          "OID": "IT.VS.DOMAIN",
          "mandatory": true,
          "name": "DOMAIN",
          "description": "Domain Abbreviation",
          "role": "Identifier",
          "dataType": "text",
          "length": null,
          "origin": [
            {
              "type": "__PLACEHOLDER__",
              "source": "__PLACEHOLDER__"
            }
          ]
        },
        {
          "OID": "IT.VS.USUBJID",
          "mandatory": true,
          "name": "USUBJID",
          "description": "Unique Subject Identifier",
          "role": "Identifier",
          "dataType": "text",
          "length": null,
          "origin": [
            {
              "type": "__PLACEHOLDER__",
              "source": "__PLACEHOLDER__"
            }
          ]
        },
        {
          "OID": "IT.VS.VSSEQ",
          "mandatory": true,
          "name": "VSSEQ",
          "description": "Sequence Number",
          "role": "Identifier",
          "dataType": "integer",
          "length": null,
          "origin": [
            {
              "type": "__PLACEHOLDER__",
              "source": "__PLACEHOLDER__"
            }
          ]
        },
        {
          "OID": "IT.VS.VSTESTCD",
          "mandatory": true,
          "name": "VSTESTCD",
          "description": "Vital Signs Test Short Name",
          "role": "Topic",
          "dataType": "text",
          "length": null,
          "origin": [
            {
              "type": "__PLACEHOLDER__",
              "source": "__PLACEHOLDER__"
            }
          ],
          "codeList": "CL.VSTESTCD"
        },
        {
          "OID": "IT.VS.VSTEST",
          "mandatory": true,
          "name": "VSTEST",
          "description": "Vital Signs Test Name",
          "role": "Synonym Qualifier",
          "dataType": "text",
          "length": null,
          "origin": [
            {
              "type": "__PLACEHOLDER__",
              "source": "__PLACEHOLDER__"
            }
          ],
          "codeList": "CL.VSTEST"
        },
        {
          "OID": "IT.VS.VSPOS",
          "mandatory": false,
          "name": "VSPOS",
          "description": "Vital Signs Position of Subject",
          "role": "Record Qualifier",
          "dataType": "text",
          "length": null,
          "origin": [
            {
              "type": "__PLACEHOLDER__",
              "source": "__PLACEHOLDER__"
            }
          ],
          "codeList": "CL.POSITION"
        },
        {
          "OID": "IT.VS.VSORRES",
          "mandatory": false,
          "name": "VSORRES",
          "description": "Result or Finding in Original Units",
          "role": "Result Qualifier",
          "dataType": "integer",
          "length": 3
        },
        {
          "OID": "IT.VS.VSORRESU",
          "mandatory": false,
          "name": "VSORRESU",
          "description": "Original Units",
          "role": "Variable Qualifier",
          "dataType": "text",
          "length": 20
        },
        {
          "OID": "IT.VS.VSSTRESC",
          "mandatory": false,
          "name": "VSSTRESC",
          "description": "Character Result/Finding in Std Format",
          "role": "Result Qualifier",
          "dataType": "integer",
          "length": 3,
          "origin": [
            {
              "type": "Derived",
              "source": "Sponsor"
            }
          ]
        },
        {
          "OID": "IT.VS.VSSTRESN",
          "mandatory": false,
          "name": "VSSTRESN",
          "description": "Numeric Result/Finding in Standard Units",
          "role": "Result Qualifier",
          "dataType": "integer",
          "length": 3,
          "origin": [
            {
              "type": "Derived",
              "source": "Sponsor"
            }
          ]
        },
        {
          "OID": "IT.VS.VSSTRESU",
          "mandatory": false,
          "name": "VSSTRESU",
          "description": "Standard Units",
          "role": "Variable Qualifier",
          "dataType": "text",
          "length": 20,
          "origin": [
            {
              "type": "Assigned",
              "source": "Sponsor"
            }
          ],
          "codeList": "CL.VSRESU"
        },
        {
          "OID": "IT.VS.VSLOC",
          "mandatory": false,
          "name": "VSLOC",
          "description": "Location of Vital Signs Measurement",
          "role": "Record Qualifier",
          "dataType": "text",
          "length": null,
          "origin": [
            {
              "type": "__PLACEHOLDER__",
              "source": "__PLACEHOLDER__"
            }
          ],
          "codeList": "CL.LOC"
        },
        {
          "OID": "IT.VS.VSLAT",
          "mandatory": false,
          "name": "VSLAT",
          "description": "Laterality",
          "role": "Result Qualifier",
          "dataType": "text",
          "length": null,
          "origin": [
            {
              "type": "__PLACEHOLDER__",
              "source": "__PLACEHOLDER__"
            }
          ],
          "codeList": "CL.LAT"
        },
        {
          "OID": "IT.VS.VSLOBXFL",
          "mandatory": false,
          "name": "VSLOBXFL",
          "description": "Last Observation Before Exposure Flag",
          "role": "Record Qualifier",
          "dataType": "text",
          "length": null,
          "origin": [
            {
              "type": "__PLACEHOLDER__",
              "source": "__PLACEHOLDER__"
            }
          ],
          "codeList": "CL.NY"
        },
        {
          "OID": "IT.VS.VISITNUM",
          "mandatory": false,
          "name": "VISITNUM",
          "description": "Visit Number",
          "role": "Timing",
          "dataType": "integer",
          "length": null,
          "origin": [
            {
              "type": "__PLACEHOLDER__",
              "source": "__PLACEHOLDER__"
            }
          ]
        },
        {
          "OID": "IT.VS.VSDTC",
          "mandatory": false,
          "name": "VSDTC",
          "description": "Date/Time of Measurements",
          "role": "Timing",
          "dataType": "datetime",
          "origin": [
            {
              "type": "__PLACEHOLDER__",
              "source": "__PLACEHOLDER__"
            }
          ]
        }
      ],
      "slices": [
        {
          "OID": "VL.VS.VSORRES",
          "name": "VL_VS_VSORRES",
          "type": "ValueList",
          "wasDerivedFrom": "IT.VS.VSORRES",
          "items": [
            {
              "OID": "IT.VS.VSORRES.SYSBP",
              "mandatory": false,
              "name": "VSORRES",
              "dataType": "integer",
              "length": 3,
              "origin": [
                {
                  "type": "Collected",
                  "source": "Investigator"
                }
              ],
              "applicableWhen": [
                "WC.VS.037b6848"
              ]
            },
            {
              "OID": "IT.VS.VSORRES.DIABP",
              "mandatory": false,
              "name": "VSORRES",
              "dataType": "integer",
              "length": 3,
              "origin": [
                {
                  "type": "Collected",
                  "source": "Investigator"
                }
              ],
              "applicableWhen": [
                "WC.VS.fe755a11"
              ]
            },
            {
              "OID": "IT.VS.VSORRES.HR",
              "mandatory": false,
              "name": "VSORRES",
              "dataType": "integer",
              "length": 3,
              "origin": [
                {
                  "type": "Collected",
                  "source": "Investigator"
                }
              ],
              "applicableWhen": [
                "WC.VS.324e0cc0"
              ]
            },
            {
              "OID": "IT.VS.VSORRES.TEMP",
              "mandatory": false,
              "name": "VSORRES",
              "dataType": "float",
              "length": 8,
              "displayFormat": "8.3",
              "significantDigits": 3,
              "origin": [
                {
                  "type": "Collected",
                  "source": "Investigator"
                }
              ],
              "applicableWhen": [
                "WC.VS.df8e6ed8"
              ]
            },
            {
              "OID": "IT.VS.VSORRES.WEIGHT",
              "mandatory": false,
              "name": "VSORRES",
              "dataType": "float",
              "length": 8,
              "displayFormat": "8.3",
              "significantDigits": 3,
              "origin": [
                {
                  "type": "Collected",
                  "source": "Investigator"
                }
              ],
              "applicableWhen": [
                "WC.VS.362bc1cf"
              ]
            }
          ]
        },
        {
          "OID": "VL.VS.VSORRESU",
          "name": "VL_VS_VSORRESU",
          "type": "ValueList",
          "wasDerivedFrom": "IT.VS.VSORRESU",
          "items": [
            {
              "OID": "IT.VS.VSORRESU.SYSBP",
              "mandatory": false,
              "name": "VSORRESU",
              "dataType": "text",
              "length": 20,
              "codeList": "CL.VSRESU",
              "origin": [
                {
                  "type": "Collected",
                  "source": "Investigator"
                }
              ],
              "applicableWhen": [
                "WC.VS.301c7ee3"
              ]
            },
            {
              "OID": "IT.VS.VSORRESU.DIABP",
              "mandatory": false,
              "name": "VSORRESU",
              "dataType": "text",
              "length": 20,
              "codeList": "CL.VSRESU",
              "origin": [
                {
                  "type": "Collected",
                  "source": "Investigator"
                }
              ],
              "applicableWhen": [
                "WC.VS.714dfc07"
              ]
            },
            {
              "OID": "IT.VS.VSORRESU.HR",
              "mandatory": false,
              "name": "VSORRESU",
              "dataType": "text",
              "length": 20,
              "codeList": "CL.VSRESU",
              "origin": [
                {
                  "type": "Collected",
                  "source": "Investigator"
                }
              ],
              "applicableWhen": [
                "WC.VS.5a9c1ab0"
              ]
            },
            {
              "OID": "IT.VS.VSORRESU.TEMP",
              "mandatory": false,
              "name": "VSORRESU",
              "dataType": "text",
              "length": 20,
              "codeList": "CL.VSRESU_TEMP",
              "origin": [
                {
                  "type": "Collected",
                  "source": "Investigator"
                }
              ],
              "applicableWhen": [
                "WC.VS.dea56915"
              ]
            },
            {
              "OID": "IT.VS.VSORRESU.WEIGHT",
              "mandatory": false,
              "name": "VSORRESU",
              "dataType": "text",
              "length": 20,
              "codeList": "CL.VSRESU_WT",
              "origin": [
                {
                  "type": "Collected",
                  "source": "Investigator"
                }
              ],
              "applicableWhen": [
                "WC.VS.ef959fbb"
              ]
            }
          ]
        }
      ]
    },
    {
      "OID": "IG.LB",
      "name": "LB",
      "description": "Laboratory Test Results",
      "domain": "LB",
      "purpose": "Tabulation",
      "structure": "One record per lab test per time point per visit per subject",
      "isReferenceData": false,
      "keySequence": [
        "__PLACEHOLDER__"
      ],
      "standard": "STD.SDTMIG",
      "observationClass": {
        "name": "FINDINGS"
      },
      "items": [
        {
          "OID": "IT.LB.STUDYID",
          "mandatory": true,
          "name": "STUDYID",
          "description": "Study Identifier",
          "role": "Identifier",
          "dataType": "text",
          "length": null,
          "origin": [
            {
              "type": "__PLACEHOLDER__",
              "source": "__PLACEHOLDER__"
            }
          ]
        },
        {
          "OID": "IT.LB.DOMAIN",
          "mandatory": true,
          "name": "DOMAIN",
          "description": "Domain Abbreviation",
          "role": "Identifier",
          "dataType": "text",
          "length": null,
          "origin": [
            {
              "type": "__PLACEHOLDER__",
              "source": "__PLACEHOLDER__"
            }
          ]
        },
        {
          "OID": "IT.LB.USUBJID",
          "mandatory": true,
          "name": "USUBJID",
          "description": "Unique Subject Identifier",
          "role": "Identifier",
          "dataType": "text",
          "length": null,
          "origin": [
            {
              "type": "__PLACEHOLDER__",
              "source": "__PLACEHOLDER__"
            }
          ]
        },
        {
          "OID": "IT.LB.LBSEQ",
          "mandatory": true,
          "name": "LBSEQ",
          "description": "Sequence Number",
          "role": "Identifier",
          "dataType": "integer",
          "length": null,
          "origin": [
            {
              "type": "__PLACEHOLDER__",
              "source": "__PLACEHOLDER__"
            }
          ]
        },
        {
          "OID": "IT.LB.LBTESTCD",
          "mandatory": true,
          "name": "LBTESTCD",
          "description": "Lab Test or Examination Short Name",
          "role": "Topic",
          "dataType": "text",
          "length": null,
          "origin": [
            {
              "type": "__PLACEHOLDER__",
              "source": "__PLACEHOLDER__"
            }
          ],
          "codeList": "CL.LBTESTCD"
        },
        {
          "OID": "IT.LB.LBTEST",
          "mandatory": true,
          "name": "LBTEST",
          "description": "Lab Test or Examination Name",
          "role": "Synonym Qualifier",
          "dataType": "text",
          "length": null,
          "origin": [
            {
              "type": "__PLACEHOLDER__",
              "source": "__PLACEHOLDER__"
            }
          ],
          "codeList": "CL.LBTEST"
        },
        {
          "OID": "IT.LB.LBCAT",
          "mandatory": false,
          "name": "LBCAT",
          "description": "Category for Lab Test",
          "role": "Grouping Qualifier",
          "dataType": "text",
          "length": null,
          "origin": [
            {
              "type": "__PLACEHOLDER__",
              "source": "__PLACEHOLDER__"
            }
          ]
        },
        {
          "OID": "IT.LB.LBORRES",
          "mandatory": false,
          "name": "LBORRES",
          "description": "Result or Finding in Original Units",
          "role": "Result Qualifier",
          "dataType": "float",
          "length": 12,
          "displayFormat": "12.4",
          "significantDigits": 4
        },
        {
          "OID": "IT.LB.LBORRESU",
          "mandatory": false,
          "name": "LBORRESU",
          "description": "Original Units",
          "role": "Variable Qualifier",
          "dataType": "text",
          "length": 20
        },
        {
          "OID": "IT.LB.LBORNRLO",
          "mandatory": false,
          "name": "LBORNRLO",
          "description": "Reference Range Lower Limit in Orig Unit",
          "role": "Variable Qualifier",
          "dataType": "text",
          "length": null,
          "origin": [
            {
              "type": "__PLACEHOLDER__",
              "source": "__PLACEHOLDER__"
            }
          ]
        },
        {
          "OID": "IT.LB.LBORNRHI",
          "mandatory": false,
          "name": "LBORNRHI",
          "description": "Reference Range Upper Limit in Orig Unit",
          "role": "Variable Qualifier",
          "dataType": "text",
          "length": null,
          "origin": [
            {
              "type": "__PLACEHOLDER__",
              "source": "__PLACEHOLDER__"
            }
          ]
        },
        {
          "OID": "IT.LB.LBSTRESC",
          "mandatory": false,
          "name": "LBSTRESC",
          "description": "Character Result/Finding in Std Format",
          "role": "Result Qualifier",
          "dataType": "float",
          "length": 12,
          "displayFormat": "12.4",
          "significantDigits": 4,
          "origin": [
            {
              "type": "Derived",
              "source": "Vendor"
            }
          ],
          "codeList": "CL.LBSTRESC"
        },
        {
          "OID": "IT.LB.LBSTRESN",
          "mandatory": false,
          "name": "LBSTRESN",
          "description": "Numeric Result/Finding in Standard Units",
          "role": "Result Qualifier",
          "dataType": "float",
          "length": 12,
          "displayFormat": "12.4",
          "significantDigits": 4,
          "origin": [
            {
              "type": "Derived",
              "source": "Vendor"
            }
          ]
        },
        {
          "OID": "IT.LB.LBSTRESU",
          "mandatory": false,
          "name": "LBSTRESU",
          "description": "Standard Units",
          "role": "Variable Qualifier",
          "dataType": "text",
          "length": 20,
          "origin": [
            {
              "type": "Assigned",
              "source": "Vendor"
            }
          ],
          "codeList": "CL.UNIT"
        },
        {
          "OID": "IT.LB.LBSTNRLO",
          "mandatory": false,
          "name": "LBSTNRLO",
          "description": "Reference Range Lower Limit-Std Units",
          "role": "Variable Qualifier",
          "dataType": "integer",
          "length": null,
          "origin": [
            {
              "type": "__PLACEHOLDER__",
              "source": "__PLACEHOLDER__"
            }
          ]
        },
        {
          "OID": "IT.LB.LBSTNRHI",
          "mandatory": false,
          "name": "LBSTNRHI",
          "description": "Reference Range Upper Limit-Std Units",
          "role": "Variable Qualifier",
          "dataType": "integer",
          "length": null,
          "origin": [
            {
              "type": "__PLACEHOLDER__",
              "source": "__PLACEHOLDER__"
            }
          ]
        },
        {
          "OID": "IT.LB.LBNRIND",
          "mandatory": false,
          "name": "LBNRIND",
          "description": "Reference Range Indicator",
          "role": "Variable Qualifier",
          "dataType": "text",
          "length": null,
          "origin": [
            {
              "type": "__PLACEHOLDER__",
              "source": "__PLACEHOLDER__"
            }
          ],
          "codeList": "CL.NRIND"
        },
        {
          "OID": "IT.LB.LBSPEC",
          "mandatory": false,
          "name": "LBSPEC",
          "description": "Specimen Type",
          "role": "Record Qualifier",
          "dataType": "text",
          "length": null,
          "origin": [
            {
              "type": "__PLACEHOLDER__",
              "source": "__PLACEHOLDER__"
            }
          ],
          "codeList": "CL.SPECTYPE"
        },
        {
          "OID": "IT.LB.LBMETHOD",
          "mandatory": false,
          "name": "LBMETHOD",
          "description": "Method of Test or Examination",
          "role": "Record Qualifier",
          "dataType": "text",
          "length": null,
          "origin": [
            {
              "type": "__PLACEHOLDER__",
              "source": "__PLACEHOLDER__"
            }
          ],
          "codeList": "CL.METHOD"
        },
        {
          "OID": "IT.LB.LBLOBXFL",
          "mandatory": false,
          "name": "LBLOBXFL",
          "description": "Last Observation Before Exposure Flag",
          "role": "Record Qualifier",
          "dataType": "text",
          "length": null,
          "origin": [
            {
              "type": "__PLACEHOLDER__",
              "source": "__PLACEHOLDER__"
            }
          ],
          "codeList": "CL.NY"
        },
        {
          "OID": "IT.LB.LBFAST",
          "mandatory": false,
          "name": "LBFAST",
          "description": "Fasting Status",
          "role": "Record Qualifier",
          "dataType": "text",
          "length": null,
          "origin": [
            {
              "type": "__PLACEHOLDER__",
              "source": "__PLACEHOLDER__"
            }
          ],
          "codeList": "CL.NY_NY"
        },
        {
          "OID": "IT.LB.VISITNUM",
          "mandatory": false,
          "name": "VISITNUM",
          "description": "Visit Number",
          "role": "Timing",
          "dataType": "integer",
          "length": null,
          "origin": [
            {
              "type": "__PLACEHOLDER__",
              "source": "__PLACEHOLDER__"
            }
          ]
        },
        {
          "OID": "IT.LB.LBDTC",
          "mandatory": false,
          "name": "LBDTC",
          "description": "Date/Time of Specimen Collection",
          "role": "Timing",
          "dataType": "datetime",
          "origin": [
            {
              "type": "__PLACEHOLDER__",
              "source": "__PLACEHOLDER__"
            }
          ]
        }
      ],
      "slices": [
        {
          "OID": "VL.LB.LBORRES",
          "name": "VL_LB_LBORRES",
          "type": "ValueList",
          "wasDerivedFrom": "IT.LB.LBORRES",
          "items": [
            {
              "OID": "IT.LB.LBORRES.ALT",
              "mandatory": false,
              "name": "LBORRES",
              "dataType": "float",
              "length": 12,
              "displayFormat": "12.4",
              "significantDigits": 4,
              "origin": [
                {
                  "type": "Collected",
                  "source": "Vendor"
                }
              ],
              "applicableWhen": [
                "WC.LB.5412b298"
              ]
            },
            {
              "OID": "IT.LB.LBORRES.AST",
              "mandatory": false,
              "name": "LBORRES",
              "dataType": "float",
              "length": 12,
              "displayFormat": "12.4",
              "significantDigits": 4,
              "origin": [
                {
                  "type": "Collected",
                  "source": "Vendor"
                }
              ],
              "applicableWhen": [
                "WC.LB.b9d7ddba"
              ]
            },
            {
              "OID": "IT.LB.LBORRES.BILI",
              "mandatory": false,
              "name": "LBORRES",
              "dataType": "float",
              "length": 12,
              "displayFormat": "12.4",
              "significantDigits": 4,
              "origin": [
                {
                  "type": "Collected",
                  "source": "Vendor"
                }
              ],
              "applicableWhen": [
                "WC.LB.3a3d03bf"
              ]
            },
            {
              "OID": "IT.LB.LBORRES.CREAT",
              "mandatory": false,
              "name": "LBORRES",
              "dataType": "float",
              "length": 12,
              "displayFormat": "12.4",
              "significantDigits": 4,
              "origin": [
                {
                  "type": "Collected",
                  "source": "Vendor"
                }
              ],
              "applicableWhen": [
                "WC.LB.e288b752"
              ]
            },
            {
              "OID": "IT.LB.LBORRES.ALB",
              "mandatory": false,
              "name": "LBORRES",
              "dataType": "float",
              "length": 12,
              "displayFormat": "12.4",
              "significantDigits": 4,
              "origin": [
                {
                  "type": "Collected",
                  "source": "Vendor"
                }
              ],
              "applicableWhen": [
                "WC.LB.1d36ec1e"
              ]
            },
            {
              "OID": "IT.LB.LBORRES.PT",
              "mandatory": false,
              "name": "LBORRES",
              "dataType": "float",
              "length": 12,
              "displayFormat": "12.4",
              "significantDigits": 4,
              "origin": [
                {
                  "type": "Collected",
                  "source": "Vendor"
                }
              ],
              "applicableWhen": [
                "WC.LB.3f470f40"
              ]
            },
            {
              "OID": "IT.LB.LBORRES.INR",
              "mandatory": false,
              "name": "LBORRES",
              "dataType": "integer",
              "length": 3,
              "origin": [
                {
                  "type": "Collected",
                  "source": "Vendor"
                }
              ],
              "applicableWhen": [
                "WC.LB.eb9a8864"
              ]
            },
            {
              "OID": "IT.LB.LBORRES.APTT",
              "mandatory": false,
              "name": "LBORRES",
              "dataType": "integer",
              "length": 3,
              "origin": [
                {
                  "type": "Collected",
                  "source": "Vendor"
                }
              ],
              "applicableWhen": [
                "WC.LB.aaa56f69"
              ]
            },
            {
              "OID": "IT.LB.LBORRES.GLUC",
              "mandatory": false,
              "name": "LBORRES",
              "dataType": "float",
              "length": 12,
              "displayFormat": "12.4",
              "significantDigits": 4,
              "origin": [
                {
                  "type": "Collected",
                  "source": "Vendor"
                }
              ],
              "applicableWhen": [
                "WC.LB.472938bb"
              ]
            },
            {
              "OID": "IT.LB.LBORRES.TRIG",
              "mandatory": false,
              "name": "LBORRES",
              "dataType": "float",
              "length": 12,
              "displayFormat": "12.4",
              "significantDigits": 4,
              "origin": [
                {
                  "type": "Collected",
                  "source": "Vendor"
                }
              ],
              "applicableWhen": [
                "WC.LB.98126366"
              ]
            },
            {
              "OID": "IT.LB.LBORRES.CHOL",
              "mandatory": false,
              "name": "LBORRES",
              "dataType": "float",
              "length": 12,
              "displayFormat": "12.4",
              "significantDigits": 4,
              "origin": [
                {
                  "type": "Collected",
                  "source": "Vendor"
                }
              ],
              "applicableWhen": [
                "WC.LB.5a1bca67"
              ]
            },
            {
              "OID": "IT.LB.LBORRES.HDL",
              "mandatory": false,
              "name": "LBORRES",
              "dataType": "float",
              "length": 12,
              "displayFormat": "12.4",
              "significantDigits": 4,
              "origin": [
                {
                  "type": "Collected",
                  "source": "Vendor"
                }
              ],
              "applicableWhen": [
                "WC.LB.ad3f10b0"
              ]
            },
            {
              "OID": "IT.LB.LBORRES.LDL",
              "mandatory": false,
              "name": "LBORRES",
              "dataType": "float",
              "length": 12,
              "displayFormat": "12.4",
              "significantDigits": 4,
              "origin": [
                {
                  "type": "Collected",
                  "source": "Vendor"
                }
              ],
              "applicableWhen": [
                "WC.LB.ed03c177"
              ]
            },
            {
              "OID": "IT.LB.LBORRES.WBC",
              "mandatory": false,
              "name": "LBORRES",
              "dataType": "float",
              "length": 12,
              "displayFormat": "12.4",
              "significantDigits": 4,
              "origin": [
                {
                  "type": "Collected",
                  "source": "Vendor"
                }
              ],
              "applicableWhen": [
                "WC.LB.351df44b"
              ]
            },
            {
              "OID": "IT.LB.LBORRES.RBC",
              "mandatory": false,
              "name": "LBORRES",
              "dataType": "float",
              "length": 12,
              "displayFormat": "12.4",
              "significantDigits": 4,
              "origin": [
                {
                  "type": "Collected",
                  "source": "Vendor"
                }
              ],
              "applicableWhen": [
                "WC.LB.87582e25"
              ]
            },
            {
              "OID": "IT.LB.LBORRES.PLAT",
              "mandatory": false,
              "name": "LBORRES",
              "dataType": "float",
              "length": 12,
              "displayFormat": "12.4",
              "significantDigits": 4,
              "origin": [
                {
                  "type": "Collected",
                  "source": "Vendor"
                }
              ],
              "applicableWhen": [
                "WC.LB.3a9d73e1"
              ]
            },
            {
              "OID": "IT.LB.LBORRES.K",
              "mandatory": false,
              "name": "LBORRES",
              "dataType": "float",
              "length": 12,
              "displayFormat": "12.4",
              "significantDigits": 4,
              "origin": [
                {
                  "type": "Collected",
                  "source": "Vendor"
                }
              ],
              "applicableWhen": [
                "WC.LB.1efec726"
              ]
            },
            {
              "OID": "IT.LB.LBORRES.SODIUM",
              "mandatory": false,
              "name": "LBORRES",
              "dataType": "float",
              "length": 12,
              "displayFormat": "12.4",
              "significantDigits": 4,
              "origin": [
                {
                  "type": "Collected",
                  "source": "Vendor"
                }
              ],
              "applicableWhen": [
                "WC.LB.624afe9f"
              ]
            },
            {
              "OID": "IT.LB.LBORRES.CL",
              "mandatory": false,
              "name": "LBORRES",
              "dataType": "float",
              "length": 12,
              "displayFormat": "12.4",
              "significantDigits": 4,
              "origin": [
                {
                  "type": "Collected",
                  "source": "Vendor"
                }
              ],
              "applicableWhen": [
                "WC.LB.02bf4e0f"
              ]
            },
            {
              "OID": "IT.LB.LBORRES.CO2",
              "mandatory": false,
              "name": "LBORRES",
              "dataType": "float",
              "length": 12,
              "displayFormat": "12.4",
              "significantDigits": 4,
              "origin": [
                {
                  "type": "Collected",
                  "source": "Vendor"
                }
              ],
              "applicableWhen": [
                "WC.LB.afbbcecf"
              ]
            },
            {
              "OID": "IT.LB.LBORRES.CA",
              "mandatory": false,
              "name": "LBORRES",
              "dataType": "float",
              "length": 12,
              "displayFormat": "12.4",
              "significantDigits": 4,
              "origin": [
                {
                  "type": "Collected",
                  "source": "Vendor"
                }
              ],
              "applicableWhen": [
                "WC.LB.00b897eb"
              ]
            },
            {
              "OID": "IT.LB.LBORRES.UREAN",
              "mandatory": false,
              "name": "LBORRES",
              "dataType": "float",
              "length": 12,
              "displayFormat": "12.4",
              "significantDigits": 4,
              "origin": [
                {
                  "type": "Collected",
                  "source": "Vendor"
                }
              ],
              "applicableWhen": [
                "WC.LB.42392cd1"
              ]
            },
            {
              "OID": "IT.LB.LBORRES.PROT",
              "mandatory": false,
              "name": "LBORRES",
              "dataType": "float",
              "length": 12,
              "displayFormat": "12.4",
              "significantDigits": 4,
              "origin": [
                {
                  "type": "Collected",
                  "source": "Vendor"
                }
              ],
              "applicableWhen": [
                "WC.LB.76af5dce"
              ]
            },
            {
              "OID": "IT.LB.LBORRES.ALP",
              "mandatory": false,
              "name": "LBORRES",
              "dataType": "float",
              "length": 12,
              "displayFormat": "12.4",
              "significantDigits": 4,
              "origin": [
                {
                  "type": "Collected",
                  "source": "Vendor"
                }
              ],
              "applicableWhen": [
                "WC.LB.cdac7fcc"
              ]
            },
            {
              "OID": "IT.LB.LBORRES.URATE",
              "mandatory": false,
              "name": "LBORRES",
              "dataType": "float",
              "length": 12,
              "displayFormat": "12.4",
              "significantDigits": 4,
              "origin": [
                {
                  "type": "Collected",
                  "source": "Vendor"
                }
              ],
              "applicableWhen": [
                "WC.LB.37c7b4ba"
              ]
            },
            {
              "OID": "IT.LB.LBORRES.PH",
              "mandatory": false,
              "name": "LBORRES",
              "dataType": "float",
              "length": 12,
              "displayFormat": "12.4",
              "significantDigits": 4,
              "origin": [
                {
                  "type": "Collected",
                  "source": "Vendor"
                }
              ],
              "applicableWhen": [
                "WC.LB.5be71299"
              ]
            },
            {
              "OID": "IT.LB.LBORRES.COLOR",
              "mandatory": false,
              "name": "LBORRES",
              "dataType": "text",
              "length": 200,
              "origin": [
                {
                  "type": "Collected",
                  "source": "Vendor"
                }
              ],
              "applicableWhen": [
                "WC.LB.4987b41e"
              ]
            },
            {
              "OID": "IT.LB.LBORRES.SPGRAV",
              "mandatory": false,
              "name": "LBORRES",
              "dataType": "float",
              "length": 12,
              "displayFormat": "12.4",
              "significantDigits": 4,
              "origin": [
                {
                  "type": "Collected",
                  "source": "Vendor"
                }
              ],
              "applicableWhen": [
                "WC.LB.cbf789d8"
              ]
            },
            {
              "OID": "IT.LB.LBORRES.HCT",
              "mandatory": false,
              "name": "LBORRES",
              "dataType": "float",
              "length": 12,
              "displayFormat": "12.4",
              "significantDigits": 4,
              "origin": [
                {
                  "type": "Collected",
                  "source": "Vendor"
                }
              ],
              "applicableWhen": [
                "WC.LB.82b97100"
              ]
            },
            {
              "OID": "IT.LB.LBORRES.HGB",
              "mandatory": false,
              "name": "LBORRES",
              "dataType": "float",
              "length": 12,
              "displayFormat": "12.4",
              "significantDigits": 4,
              "origin": [
                {
                  "type": "Collected",
                  "source": "Vendor"
                }
              ],
              "applicableWhen": [
                "WC.LB.561fe300"
              ]
            },
            {
              "OID": "IT.LB.LBORRES.MCH",
              "mandatory": false,
              "name": "LBORRES",
              "dataType": "float",
              "length": 12,
              "displayFormat": "12.4",
              "significantDigits": 4,
              "origin": [
                {
                  "type": "Collected",
                  "source": "Vendor"
                }
              ],
              "applicableWhen": [
                "WC.LB.95f4de22"
              ]
            },
            {
              "OID": "IT.LB.LBORRES.LYM",
              "mandatory": false,
              "name": "LBORRES",
              "dataType": "float",
              "length": 12,
              "displayFormat": "12.4",
              "significantDigits": 4,
              "origin": [
                {
                  "type": "Collected",
                  "source": "Vendor"
                }
              ],
              "applicableWhen": [
                "WC.LB.7f17223f"
              ]
            },
            {
              "OID": "IT.LB.LBORRES.MONO",
              "mandatory": false,
              "name": "LBORRES",
              "dataType": "float",
              "length": 12,
              "displayFormat": "12.4",
              "significantDigits": 4,
              "origin": [
                {
                  "type": "Collected",
                  "source": "Vendor"
                }
              ],
              "applicableWhen": [
                "WC.LB.de4c119b"
              ]
            },
            {
              "OID": "IT.LB.LBORRES.NEUT",
              "mandatory": false,
              "name": "LBORRES",
              "dataType": "float",
              "length": 12,
              "displayFormat": "12.4",
              "significantDigits": 4,
              "origin": [
                {
                  "type": "Collected",
                  "source": "Vendor"
                }
              ],
              "applicableWhen": [
                "WC.LB.550c7a01"
              ]
            },
            {
              "OID": "IT.LB.LBORRES.BASO",
              "mandatory": false,
              "name": "LBORRES",
              "dataType": "float",
              "length": 12,
              "displayFormat": "12.4",
              "significantDigits": 4,
              "origin": [
                {
                  "type": "Collected",
                  "source": "Vendor"
                }
              ],
              "applicableWhen": [
                "WC.LB.7b86c15b"
              ]
            },
            {
              "OID": "IT.LB.LBORRES.EOS",
              "mandatory": false,
              "name": "LBORRES",
              "dataType": "float",
              "length": 12,
              "displayFormat": "12.4",
              "significantDigits": 4,
              "origin": [
                {
                  "type": "Collected",
                  "source": "Vendor"
                }
              ],
              "applicableWhen": [
                "WC.LB.a5684311"
              ]
            },
            {
              "OID": "IT.LB.LBORRES.NEUTB",
              "mandatory": false,
              "name": "LBORRES",
              "dataType": "float",
              "length": 12,
              "displayFormat": "12.4",
              "significantDigits": 4,
              "origin": [
                {
                  "type": "Collected",
                  "source": "Vendor"
                }
              ],
              "applicableWhen": [
                "WC.LB.eea0ae49"
              ]
            },
            {
              "OID": "IT.LB.LBORRES.PHOS",
              "mandatory": false,
              "name": "LBORRES",
              "dataType": "float",
              "length": 12,
              "displayFormat": "12.4",
              "significantDigits": 4,
              "origin": [
                {
                  "type": "Collected",
                  "source": "Vendor"
                }
              ],
              "applicableWhen": [
                "WC.LB.e4e81dc5"
              ]
            },
            {
              "OID": "IT.LB.LBORRES.MCV",
              "mandatory": false,
              "name": "LBORRES",
              "dataType": "float",
              "length": 12,
              "displayFormat": "12.4",
              "significantDigits": 4,
              "origin": [
                {
                  "type": "Collected",
                  "source": "Vendor"
                }
              ],
              "applicableWhen": [
                "WC.LB.24c0e2bc"
              ]
            }
          ]
        },
        {
          "OID": "VL.LB.LBORRESU",
          "name": "VL_LB_LBORRESU",
          "type": "ValueList",
          "wasDerivedFrom": "IT.LB.LBORRESU",
          "items": [
            {
              "OID": "IT.LB.LBORRESU.ALT",
              "mandatory": false,
              "name": "LBORRESU",
              "dataType": "text",
              "length": 20,
              "codeList": "CL.UNIT",
              "origin": [
                {
                  "type": "Collected",
                  "source": "Vendor"
                }
              ],
              "applicableWhen": [
                "WC.LB.8914eb45"
              ]
            },
            {
              "OID": "IT.LB.LBORRESU.AST",
              "mandatory": false,
              "name": "LBORRESU",
              "dataType": "text",
              "length": 20,
              "codeList": "CL.UNIT",
              "origin": [
                {
                  "type": "Collected",
                  "source": "Vendor"
                }
              ],
              "applicableWhen": [
                "WC.LB.37e389df"
              ]
            },
            {
              "OID": "IT.LB.LBORRESU.BILI",
              "mandatory": false,
              "name": "LBORRESU",
              "dataType": "text",
              "length": 20,
              "codeList": "CL.UNIT",
              "origin": [
                {
                  "type": "Collected",
                  "source": "Vendor"
                }
              ],
              "applicableWhen": [
                "WC.LB.51fc5f07"
              ]
            },
            {
              "OID": "IT.LB.LBORRESU.CREAT",
              "mandatory": false,
              "name": "LBORRESU",
              "dataType": "text",
              "length": 20,
              "codeList": "CL.UNIT",
              "origin": [
                {
                  "type": "Collected",
                  "source": "Vendor"
                }
              ],
              "applicableWhen": [
                "WC.LB.6b563df7"
              ]
            },
            {
              "OID": "IT.LB.LBORRESU.ALB",
              "mandatory": false,
              "name": "LBORRESU",
              "dataType": "text",
              "length": 20,
              "codeList": "CL.UNIT",
              "origin": [
                {
                  "type": "Collected",
                  "source": "Vendor"
                }
              ],
              "applicableWhen": [
                "WC.LB.4dbf6936"
              ]
            },
            {
              "OID": "IT.LB.LBORRESU.PT",
              "mandatory": false,
              "name": "LBORRESU",
              "dataType": "text",
              "length": 20,
              "codeList": "CL.UNIT",
              "origin": [
                {
                  "type": "Collected",
                  "source": "Vendor"
                }
              ],
              "applicableWhen": [
                "WC.LB.78ccd5b1"
              ]
            },
            {
              "OID": "IT.LB.LBORRESU.INR",
              "mandatory": false,
              "name": "LBORRESU",
              "dataType": "text",
              "length": 20,
              "codeList": "CL.UNIT",
              "origin": [
                {
                  "type": "Collected",
                  "source": "Vendor"
                }
              ],
              "applicableWhen": [
                "WC.LB.0030fd21"
              ]
            },
            {
              "OID": "IT.LB.LBORRESU.APTT",
              "mandatory": false,
              "name": "LBORRESU",
              "dataType": "text",
              "length": 20,
              "codeList": "CL.UNIT",
              "origin": [
                {
                  "type": "Collected",
                  "source": "Vendor"
                }
              ],
              "applicableWhen": [
                "WC.LB.05ac1360"
              ]
            },
            {
              "OID": "IT.LB.LBORRESU.GLUC",
              "mandatory": false,
              "name": "LBORRESU",
              "dataType": "text",
              "length": 20,
              "codeList": "CL.UNIT",
              "origin": [
                {
                  "type": "Collected",
                  "source": "Vendor"
                }
              ],
              "applicableWhen": [
                "WC.LB.84e016e2"
              ]
            },
            {
              "OID": "IT.LB.LBORRESU.TRIG",
              "mandatory": false,
              "name": "LBORRESU",
              "dataType": "text",
              "length": 20,
              "codeList": "CL.UNIT",
              "origin": [
                {
                  "type": "Collected",
                  "source": "Vendor"
                }
              ],
              "applicableWhen": [
                "WC.LB.b42dd47a"
              ]
            },
            {
              "OID": "IT.LB.LBORRESU.CHOL",
              "mandatory": false,
              "name": "LBORRESU",
              "dataType": "text",
              "length": 20,
              "codeList": "CL.UNIT",
              "origin": [
                {
                  "type": "Collected",
                  "source": "Vendor"
                }
              ],
              "applicableWhen": [
                "WC.LB.516f3664"
              ]
            },
            {
              "OID": "IT.LB.LBORRESU.HDL",
              "mandatory": false,
              "name": "LBORRESU",
              "dataType": "text",
              "length": 20,
              "codeList": "CL.UNIT",
              "origin": [
                {
                  "type": "Collected",
                  "source": "Vendor"
                }
              ],
              "applicableWhen": [
                "WC.LB.1e8d2cf5"
              ]
            },
            {
              "OID": "IT.LB.LBORRESU.LDL",
              "mandatory": false,
              "name": "LBORRESU",
              "dataType": "text",
              "length": 20,
              "codeList": "CL.UNIT",
              "origin": [
                {
                  "type": "Collected",
                  "source": "Vendor"
                }
              ],
              "applicableWhen": [
                "WC.LB.0e2029a6"
              ]
            },
            {
              "OID": "IT.LB.LBORRESU.WBC",
              "mandatory": false,
              "name": "LBORRESU",
              "dataType": "text",
              "length": 20,
              "codeList": "CL.UNIT",
              "origin": [
                {
                  "type": "Collected",
                  "source": "Vendor"
                }
              ],
              "applicableWhen": [
                "WC.LB.41785be6"
              ]
            },
            {
              "OID": "IT.LB.LBORRESU.RBC",
              "mandatory": false,
              "name": "LBORRESU",
              "dataType": "text",
              "length": 20,
              "codeList": "CL.UNIT",
              "origin": [
                {
                  "type": "Collected",
                  "source": "Vendor"
                }
              ],
              "applicableWhen": [
                "WC.LB.f7f1de35"
              ]
            },
            {
              "OID": "IT.LB.LBORRESU.PLAT",
              "mandatory": false,
              "name": "LBORRESU",
              "dataType": "text",
              "length": 20,
              "codeList": "CL.UNIT",
              "origin": [
                {
                  "type": "Collected",
                  "source": "Vendor"
                }
              ],
              "applicableWhen": [
                "WC.LB.90eedf3b"
              ]
            },
            {
              "OID": "IT.LB.LBORRESU.K",
              "mandatory": false,
              "name": "LBORRESU",
              "dataType": "text",
              "length": 20,
              "codeList": "CL.UNIT",
              "origin": [
                {
                  "type": "Collected",
                  "source": "Vendor"
                }
              ],
              "applicableWhen": [
                "WC.LB.b1ccc1c3"
              ]
            },
            {
              "OID": "IT.LB.LBORRESU.SODIUM",
              "mandatory": false,
              "name": "LBORRESU",
              "dataType": "text",
              "length": 20,
              "codeList": "CL.UNIT",
              "origin": [
                {
                  "type": "Collected",
                  "source": "Vendor"
                }
              ],
              "applicableWhen": [
                "WC.LB.6d816ed3"
              ]
            },
            {
              "OID": "IT.LB.LBORRESU.CL",
              "mandatory": false,
              "name": "LBORRESU",
              "dataType": "text",
              "length": 20,
              "codeList": "CL.UNIT",
              "origin": [
                {
                  "type": "Collected",
                  "source": "Vendor"
                }
              ],
              "applicableWhen": [
                "WC.LB.0749efcb"
              ]
            },
            {
              "OID": "IT.LB.LBORRESU.CO2",
              "mandatory": false,
              "name": "LBORRESU",
              "dataType": "text",
              "length": 20,
              "codeList": "CL.UNIT",
              "origin": [
                {
                  "type": "Collected",
                  "source": "Vendor"
                }
              ],
              "applicableWhen": [
                "WC.LB.6055a374"
              ]
            },
            {
              "OID": "IT.LB.LBORRESU.CA",
              "mandatory": false,
              "name": "LBORRESU",
              "dataType": "text",
              "length": 20,
              "codeList": "CL.UNIT",
              "origin": [
                {
                  "type": "Collected",
                  "source": "Vendor"
                }
              ],
              "applicableWhen": [
                "WC.LB.98ec37e8"
              ]
            },
            {
              "OID": "IT.LB.LBORRESU.UREAN",
              "mandatory": false,
              "name": "LBORRESU",
              "dataType": "text",
              "length": 20,
              "codeList": "CL.UNIT",
              "origin": [
                {
                  "type": "Collected",
                  "source": "Vendor"
                }
              ],
              "applicableWhen": [
                "WC.LB.91d1c3d5"
              ]
            },
            {
              "OID": "IT.LB.LBORRESU.PROT",
              "mandatory": false,
              "name": "LBORRESU",
              "dataType": "text",
              "length": 20,
              "codeList": "CL.UNIT",
              "origin": [
                {
                  "type": "Collected",
                  "source": "Vendor"
                }
              ],
              "applicableWhen": [
                "WC.LB.f626190e"
              ]
            },
            {
              "OID": "IT.LB.LBORRESU.ALP",
              "mandatory": false,
              "name": "LBORRESU",
              "dataType": "text",
              "length": 20,
              "codeList": "CL.UNIT",
              "origin": [
                {
                  "type": "Collected",
                  "source": "Vendor"
                }
              ],
              "applicableWhen": [
                "WC.LB.6660e11c"
              ]
            },
            {
              "OID": "IT.LB.LBORRESU.URATE",
              "mandatory": false,
              "name": "LBORRESU",
              "dataType": "text",
              "length": 20,
              "codeList": "CL.UNIT",
              "origin": [
                {
                  "type": "Collected",
                  "source": "Vendor"
                }
              ],
              "applicableWhen": [
                "WC.LB.13fbb1a5"
              ]
            },
            {
              "OID": "IT.LB.LBORRESU.HCT",
              "mandatory": false,
              "name": "LBORRESU",
              "dataType": "text",
              "length": 20,
              "codeList": "CL.UNIT",
              "origin": [
                {
                  "type": "Collected",
                  "source": "Vendor"
                }
              ],
              "applicableWhen": [
                "WC.LB.7f0975c7"
              ]
            },
            {
              "OID": "IT.LB.LBORRESU.HGB",
              "mandatory": false,
              "name": "LBORRESU",
              "dataType": "text",
              "length": 20,
              "codeList": "CL.UNIT",
              "origin": [
                {
                  "type": "Collected",
                  "source": "Vendor"
                }
              ],
              "applicableWhen": [
                "WC.LB.e5974dd9"
              ]
            },
            {
              "OID": "IT.LB.LBORRESU.MCH",
              "mandatory": false,
              "name": "LBORRESU",
              "dataType": "text",
              "length": 20,
              "codeList": "CL.UNIT",
              "origin": [
                {
                  "type": "Collected",
                  "source": "Vendor"
                }
              ],
              "applicableWhen": [
                "WC.LB.c32acb17"
              ]
            },
            {
              "OID": "IT.LB.LBORRESU.LYM",
              "mandatory": false,
              "name": "LBORRESU",
              "dataType": "text",
              "length": 20,
              "codeList": "CL.UNIT",
              "origin": [
                {
                  "type": "Collected",
                  "source": "Vendor"
                }
              ],
              "applicableWhen": [
                "WC.LB.29037a1f"
              ]
            },
            {
              "OID": "IT.LB.LBORRESU.MONO",
              "mandatory": false,
              "name": "LBORRESU",
              "dataType": "text",
              "length": 20,
              "codeList": "CL.UNIT",
              "origin": [
                {
                  "type": "Collected",
                  "source": "Vendor"
                }
              ],
              "applicableWhen": [
                "WC.LB.00e6d228"
              ]
            },
            {
              "OID": "IT.LB.LBORRESU.NEUT",
              "mandatory": false,
              "name": "LBORRESU",
              "dataType": "text",
              "length": 20,
              "codeList": "CL.UNIT",
              "origin": [
                {
                  "type": "Collected",
                  "source": "Vendor"
                }
              ],
              "applicableWhen": [
                "WC.LB.d13d6578"
              ]
            },
            {
              "OID": "IT.LB.LBORRESU.BASO",
              "mandatory": false,
              "name": "LBORRESU",
              "dataType": "text",
              "length": 20,
              "codeList": "CL.UNIT",
              "origin": [
                {
                  "type": "Collected",
                  "source": "Vendor"
                }
              ],
              "applicableWhen": [
                "WC.LB.b6fa6e8d"
              ]
            },
            {
              "OID": "IT.LB.LBORRESU.EOS",
              "mandatory": false,
              "name": "LBORRESU",
              "dataType": "text",
              "length": 20,
              "codeList": "CL.UNIT",
              "origin": [
                {
                  "type": "Collected",
                  "source": "Vendor"
                }
              ],
              "applicableWhen": [
                "WC.LB.ef654de1"
              ]
            },
            {
              "OID": "IT.LB.LBORRESU.NEUTB",
              "mandatory": false,
              "name": "LBORRESU",
              "dataType": "text",
              "length": 20,
              "codeList": "CL.UNIT",
              "origin": [
                {
                  "type": "Collected",
                  "source": "Vendor"
                }
              ],
              "applicableWhen": [
                "WC.LB.aad6dbd6"
              ]
            },
            {
              "OID": "IT.LB.LBORRESU.PHOS",
              "mandatory": false,
              "name": "LBORRESU",
              "dataType": "text",
              "length": 20,
              "codeList": "CL.UNIT",
              "origin": [
                {
                  "type": "Collected",
                  "source": "Vendor"
                }
              ],
              "applicableWhen": [
                "WC.LB.3749493c"
              ]
            },
            {
              "OID": "IT.LB.LBORRESU.MCV",
              "mandatory": false,
              "name": "LBORRESU",
              "dataType": "text",
              "length": 20,
              "codeList": "CL.UNIT",
              "origin": [
                {
                  "type": "Collected",
                  "source": "Vendor"
                }
              ],
              "applicableWhen": [
                "WC.LB.e881d4b5"
              ]
            }
          ]
        }
      ]
    },
    {
      "OID": "IG.CM",
      "name": "CM",
      "description": "Concomitant/Prior Medications",
      "domain": "CM",
      "purpose": "Tabulation",
      "structure": "One record per recorded intervention occurrence or constant-dosing interval per subject",
      "isReferenceData": false,
      "keySequence": [
        "__PLACEHOLDER__"
      ],
      "standard": "STD.SDTMIG",
      "observationClass": {
        "name": "INTERVENTIONS"
      },
      "items": [
        {
          "OID": "IT.CM.STUDYID",
          "mandatory": true,
          "name": "STUDYID",
          "description": "Study Identifier",
          "role": "Identifier",
          "dataType": "text",
          "length": null,
          "origin": [
            {
              "type": "__PLACEHOLDER__",
              "source": "__PLACEHOLDER__"
            }
          ]
        },
        {
          "OID": "IT.CM.DOMAIN",
          "mandatory": true,
          "name": "DOMAIN",
          "description": "Domain Abbreviation",
          "role": "Identifier",
          "dataType": "text",
          "length": null,
          "origin": [
            {
              "type": "__PLACEHOLDER__",
              "source": "__PLACEHOLDER__"
            }
          ]
        },
        {
          "OID": "IT.CM.USUBJID",
          "mandatory": true,
          "name": "USUBJID",
          "description": "Unique Subject Identifier",
          "role": "Identifier",
          "dataType": "text",
          "length": null,
          "origin": [
            {
              "type": "__PLACEHOLDER__",
              "source": "__PLACEHOLDER__"
            }
          ]
        },
        {
          "OID": "IT.CM.CMSEQ",
          "mandatory": true,
          "name": "CMSEQ",
          "description": "Sequence Number",
          "role": "Identifier",
          "dataType": "integer",
          "length": null,
          "origin": [
            {
              "type": "__PLACEHOLDER__",
              "source": "__PLACEHOLDER__"
            }
          ]
        },
        {
          "OID": "IT.CM.CMTRT",
          "mandatory": true,
          "name": "CMTRT",
          "description": "Reported Name of Drug, Med, or Therapy",
          "role": "Topic",
          "dataType": "text",
          "length": 200,
          "origin": [
            {
              "type": "Collected",
              "source": "Investigator"
            }
          ]
        },
        {
          "OID": "IT.CM.CMDECOD",
          "mandatory": false,
          "name": "CMDECOD",
          "description": "Standardized Medication Name",
          "role": "Synonym Qualifier",
          "dataType": "text",
          "length": 200,
          "origin": [
            {
              "type": "Assigned",
              "source": "Sponsor"
            }
          ]
        },
        {
          "OID": "IT.CM.CMCAT",
          "mandatory": false,
          "name": "CMCAT",
          "description": "Category for Medication",
          "role": "Grouping Qualifier",
          "dataType": "text",
          "length": 200,
          "origin": [
            {
              "type": "Assigned",
              "source": "Sponsor"
            }
          ]
        },
        {
          "OID": "IT.CM.CMSCAT",
          "mandatory": false,
          "name": "CMSCAT",
          "description": "Subcategory for Medication",
          "role": "Grouping Qualifier",
          "dataType": "text",
          "length": 200,
          "origin": [
            {
              "type": "Assigned",
              "source": "Sponsor"
            }
          ]
        },
        {
          "OID": "IT.CM.CMPRESP",
          "mandatory": false,
          "name": "CMPRESP",
          "description": "CM Pre-specified",
          "role": "Variable Qualifier",
          "dataType": "text",
          "length": 1,
          "origin": [
            {
              "type": "Assigned",
              "source": "Sponsor"
            }
          ],
          "codeList": "CL.NY"
        },
        {
          "OID": "IT.CM.CMOCCUR",
          "mandatory": false,
          "name": "CMOCCUR",
          "description": "CM Occurrence",
          "role": "Record Qualifier",
          "dataType": "text",
          "length": 1,
          "origin": [
            {
              "type": "Collected",
              "source": "Investigator"
            }
          ],
          "codeList": "CL.NY"
        },
        {
          "OID": "IT.CM.CMINDC",
          "mandatory": false,
          "name": "CMINDC",
          "description": "Indication",
          "role": "Record Qualifier",
          "dataType": "text",
          "length": 200,
          "origin": [
            {
              "type": "Collected",
              "source": "Investigator"
            }
          ]
        },
        {
          "OID": "IT.CM.CMCLAS",
          "mandatory": false,
          "name": "CMCLAS",
          "description": "Medication Class",
          "role": "Variable Qualifier",
          "dataType": "text",
          "length": 200,
          "origin": [
            {
              "type": "Assigned",
              "source": "Sponsor"
            }
          ]
        },
        {
          "OID": "IT.CM.CMCLASCD",
          "mandatory": false,
          "name": "CMCLASCD",
          "description": "Medication Class Code",
          "role": "Variable Qualifier",
          "dataType": "text",
          "length": 200,
          "origin": [
            {
              "type": "Assigned",
              "source": "Sponsor"
            }
          ]
        },
        {
          "OID": "IT.CM.CMDOSE",
          "mandatory": false,
          "name": "CMDOSE",
          "description": "Dose per Administration",
          "role": "Record Qualifier",
          "dataType": "float",
          "length": 8,
          "displayFormat": "8.3",
          "significantDigits": 3,
          "origin": [
            {
              "type": "Collected",
              "source": "Investigator"
            }
          ]
        },
        {
          "OID": "IT.CM.CMDOSTXT",
          "mandatory": false,
          "name": "CMDOSTXT",
          "description": "Dose Description",
          "role": "Record Qualifier",
          "dataType": "text",
          "length": 40,
          "origin": [
            {
              "type": "Collected",
              "source": "Investigator"
            }
          ]
        },
        {
          "OID": "IT.CM.CMDOSU",
          "mandatory": false,
          "name": "CMDOSU",
          "description": "Dose Units",
          "role": "Variable Qualifier",
          "dataType": "text",
          "length": 40,
          "origin": [
            {
              "type": "Collected",
              "source": "Investigator"
            }
          ],
          "codeList": "CL.UNIT"
        },
        {
          "OID": "IT.CM.CMDOSFRM",
          "mandatory": false,
          "name": "CMDOSFRM",
          "description": "Dose Form",
          "role": "Variable Qualifier",
          "dataType": "text",
          "length": 40,
          "origin": [
            {
              "type": "Collected",
              "source": "Investigator"
            }
          ],
          "codeList": "CL.FRM"
        },
        {
          "OID": "IT.CM.CMDOSFRQ",
          "mandatory": false,
          "name": "CMDOSFRQ",
          "description": "Dosing Frequency per Interval",
          "role": "Record Qualifier",
          "dataType": "text",
          "length": 40,
          "origin": [
            {
              "type": "Collected",
              "source": "Investigator"
            }
          ],
          "codeList": "CL.FREQ"
        },
        {
          "OID": "IT.CM.CMROUTE",
          "mandatory": false,
          "name": "CMROUTE",
          "description": "Route of Administration",
          "role": "Variable Qualifier",
          "dataType": "text",
          "length": 40,
          "origin": [
            {
              "type": "Collected",
              "source": "Investigator"
            }
          ],
          "codeList": "CL.ROUTE"
        },
        {
          "OID": "IT.CM.CMSTDTC",
          "mandatory": false,
          "name": "CMSTDTC",
          "description": "Start Date/Time of Medication",
          "role": "Timing",
          "dataType": "datetime",
          "origin": [
            {
              "type": "Collected",
              "source": "Investigator"
            }
          ]
        },
        {
          "OID": "IT.CM.CMENDTC",
          "mandatory": false,
          "name": "CMENDTC",
          "description": "End Date/Time of Medication",
          "role": "Timing",
          "dataType": "datetime",
          "origin": [
            {
              "type": "Collected",
              "source": "Investigator"
            }
          ]
        },
        {
          "OID": "IT.CM.CMSTRF",
          "mandatory": false,
          "name": "CMSTRF",
          "description": "Start Relative to Reference Period",
          "role": "Timing",
          "dataType": "text",
          "length": 20,
          "origin": [
            {
              "type": "Assigned",
              "source": "Sponsor"
            }
          ],
          "codeList": "CL.STENRF"
        },
        {
          "OID": "IT.CM.CMENRF",
          "mandatory": false,
          "name": "CMENRF",
          "description": "End Relative to Reference Period",
          "role": "Timing",
          "dataType": "text",
          "length": 20,
          "origin": [
            {
              "type": "Assigned",
              "source": "Sponsor"
            }
          ],
          "codeList": "CL.STENRF"
        },
        {
          "OID": "IT.CM.CMSTRTPT",
          "mandatory": false,
          "name": "CMSTRTPT",
          "description": "Start Relative to Reference Time Point",
          "role": "Timing",
          "dataType": "text",
          "length": 20,
          "origin": [
            {
              "type": "Assigned",
              "source": "Sponsor"
            }
          ],
          "codeList": "CL.STENRF"
        },
        {
          "OID": "IT.CM.CMSTTPT",
          "mandatory": false,
          "name": "CMSTTPT",
          "description": "Start Reference Time Point",
          "role": "Timing",
          "dataType": "text",
          "length": 20,
          "origin": [
            {
              "type": "Assigned",
              "source": "Sponsor"
            }
          ]
        },
        {
          "OID": "IT.CM.CMENRTPT",
          "mandatory": false,
          "name": "CMENRTPT",
          "description": "End Relative to Reference Time Point",
          "role": "Timing",
          "dataType": "text",
          "length": 20,
          "origin": [
            {
              "type": "Assigned",
              "source": "Sponsor"
            }
          ],
          "codeList": "CL.STENRF"
        },
        {
          "OID": "IT.CM.CMENTPT",
          "mandatory": false,
          "name": "CMENTPT",
          "description": "End Reference Time Point",
          "role": "Timing",
          "dataType": "text",
          "length": 20,
          "origin": [
            {
              "type": "Assigned",
              "source": "Sponsor"
            }
          ]
        }
      ]
    },
    {
      "OID": "IG.TS",
      "name": "TS",
      "description": "Trial Summary",
      "domain": "TS",
      "purpose": "Tabulation",
      "structure": "One record per trial summary parameter value",
      "isReferenceData": true,
      "keySequence": [
        "__PLACEHOLDER__"
      ],
      "standard": "STD.SDTMIG",
      "observationClass": {
        "name": "TRIAL DESIGN"
      },
      "items": [
        {
          "OID": "IT.TS.STUDYID",
          "mandatory": true,
          "name": "STUDYID",
          "description": "Study Identifier",
          "role": "Identifier",
          "dataType": "text",
          "length": null,
          "origin": [
            {
              "type": "__PLACEHOLDER__",
              "source": "__PLACEHOLDER__"
            }
          ]
        },
        {
          "OID": "IT.TS.DOMAIN",
          "mandatory": true,
          "name": "DOMAIN",
          "description": "Domain Abbreviation",
          "role": "Identifier",
          "dataType": "text",
          "length": null,
          "origin": [
            {
              "type": "__PLACEHOLDER__",
              "source": "__PLACEHOLDER__"
            }
          ]
        },
        {
          "OID": "IT.TS.TSSEQ",
          "mandatory": true,
          "name": "TSSEQ",
          "description": "Sequence Number",
          "role": "Identifier",
          "dataType": "integer",
          "length": null,
          "origin": [
            {
              "type": "__PLACEHOLDER__",
              "source": "__PLACEHOLDER__"
            }
          ]
        },
        {
          "OID": "IT.TS.TSPARMCD",
          "mandatory": true,
          "name": "TSPARMCD",
          "description": "Trial Summary Parameter Short Name",
          "role": "Topic",
          "dataType": "text",
          "length": null,
          "codeList": "CL.TSPARMCD"
        },
        {
          "OID": "IT.TS.TSPARM",
          "mandatory": true,
          "name": "TSPARM",
          "description": "Trial Summary Parameter",
          "role": "Synonym Qualifier",
          "dataType": "text",
          "length": null,
          "origin": [
            {
              "type": "__PLACEHOLDER__",
              "source": "__PLACEHOLDER__"
            }
          ],
          "codeList": "CL.TSPARM"
        },
        {
          "OID": "IT.TS.TSVAL",
          "mandatory": false,
          "name": "TSVAL",
          "description": "Parameter Value",
          "role": "Result Qualifier",
          "dataType": "text",
          "length": null
        },
        {
          "OID": "IT.TS.TSVALCD",
          "mandatory": false,
          "name": "TSVALCD",
          "description": "Parameter Value Code",
          "role": "Result Qualifier",
          "dataType": "text",
          "length": null
        },
        {
          "OID": "IT.TS.TSVCDREF",
          "mandatory": false,
          "name": "TSVCDREF",
          "description": "Name of the Reference Terminology",
          "role": "Result Qualifier",
          "dataType": "text",
          "length": null
        },
        {
          "OID": "IT.TS.TSVCDVER",
          "mandatory": false,
          "name": "TSVCDVER",
          "description": "Version of the Reference Terminology",
          "role": "Result Qualifier",
          "dataType": "text",
          "length": null
        }
      ],
      "slices": [
        {
          "OID": "VL.TS.TSPARMCD",
          "name": "VL_TS_TSPARMCD",
          "type": "ValueList",
          "wasDerivedFrom": "IT.TS.TSPARMCD",
          "items": [
            {
              "OID": "IT.TS.TSPARMCD.COMPTRT",
              "mandatory": false,
              "name": "TSPARMCD",
              "dataType": "text",
              "length": 200,
              "origin": [
                {
                  "type": "Protocol",
                  "source": "Sponsor"
                }
              ],
              "applicableWhen": [
                "WC.TS.54cd02f1"
              ]
            },
            {
              "OID": "IT.TS.TSPARMCD.INDIC",
              "mandatory": false,
              "name": "TSPARMCD",
              "dataType": "text",
              "length": 200,
              "origin": [
                {
                  "type": "Protocol",
                  "source": "Sponsor"
                }
              ],
              "applicableWhen": [
                "WC.TS.9cdae039"
              ]
            },
            {
              "OID": "IT.TS.TSPARMCD.INTTYPE",
              "mandatory": false,
              "name": "TSPARMCD",
              "dataType": "text",
              "length": 200,
              "origin": [
                {
                  "type": "Protocol",
                  "source": "Sponsor"
                }
              ],
              "applicableWhen": [
                "WC.TS.e3ae16cd"
              ]
            },
            {
              "OID": "IT.TS.TSPARMCD.NARMS",
              "mandatory": false,
              "name": "TSPARMCD",
              "dataType": "text",
              "length": 200,
              "origin": [
                {
                  "type": "Protocol",
                  "source": "Sponsor"
                }
              ],
              "applicableWhen": [
                "WC.TS.89c0d243"
              ]
            },
            {
              "OID": "IT.TS.TSPARMCD.OBJPRIM",
              "mandatory": false,
              "name": "TSPARMCD",
              "dataType": "text",
              "length": 200,
              "origin": [
                {
                  "type": "Protocol",
                  "source": "Sponsor"
                }
              ],
              "applicableWhen": [
                "WC.TS.7a056c75"
              ]
            },
            {
              "OID": "IT.TS.TSPARMCD.OBJSEC",
              "mandatory": false,
              "name": "TSPARMCD",
              "dataType": "text",
              "length": 200,
              "origin": [
                {
                  "type": "Protocol",
                  "source": "Sponsor"
                }
              ],
              "applicableWhen": [
                "WC.TS.36721696"
              ]
            },
            {
              "OID": "IT.TS.TSPARMCD.OUTMSPRI",
              "mandatory": false,
              "name": "TSPARMCD",
              "dataType": "text",
              "length": 200,
              "origin": [
                {
                  "type": "Protocol",
                  "source": "Sponsor"
                }
              ],
              "applicableWhen": [
                "WC.TS.d8b84608"
              ]
            },
            {
              "OID": "IT.TS.TSPARMCD.OUTMSSEC",
              "mandatory": false,
              "name": "TSPARMCD",
              "dataType": "text",
              "length": 200,
              "origin": [
                {
                  "type": "Protocol",
                  "source": "Sponsor"
                }
              ],
              "applicableWhen": [
                "WC.TS.1d3cd461"
              ]
            },
            {
              "OID": "IT.TS.TSPARMCD.SPONSOR",
              "mandatory": false,
              "name": "TSPARMCD",
              "dataType": "text",
              "length": 200,
              "origin": [
                {
                  "type": "Protocol",
                  "source": "Sponsor"
                }
              ],
              "applicableWhen": [
                "WC.TS.51236927"
              ]
            },
            {
              "OID": "IT.TS.TSPARMCD.TITLE",
              "mandatory": false,
              "name": "TSPARMCD",
              "dataType": "text",
              "length": 200,
              "origin": [
                {
                  "type": "Protocol",
                  "source": "Sponsor"
                }
              ],
              "applicableWhen": [
                "WC.TS.43684533"
              ]
            },
            {
              "OID": "IT.TS.TSPARMCD.TRT",
              "mandatory": false,
              "name": "TSPARMCD",
              "dataType": "text",
              "length": 200,
              "origin": [
                {
                  "type": "Protocol",
                  "source": "Sponsor"
                }
              ],
              "applicableWhen": [
                "WC.TS.1948fed3"
              ]
            }
          ]
        },
        {
          "OID": "VL.TS.TSVAL",
          "name": "VL_TS_TSVAL",
          "type": "ValueList",
          "wasDerivedFrom": "IT.TS.TSVAL",
          "items": [
            {
              "OID": "IT.TS.TSVAL.RANDOM",
              "mandatory": false,
              "name": "TSVAL",
              "dataType": "text",
              "length": null,
              "codeList": "CL.NY",
              "origin": [
                {
                  "type": "__PLACEHOLDER__",
                  "source": "__PLACEHOLDER__"
                }
              ],
              "applicableWhen": [
                "WC.TS.353849e9"
              ]
            }
          ]
        },
        {
          "OID": "VL.TS.TSVALCD",
          "name": "VL_TS_TSVALCD",
          "type": "ValueList",
          "wasDerivedFrom": "IT.TS.TSVALCD",
          "items": [
            {
              "OID": "IT.TS.TSVALCD.RANDOM",
              "mandatory": false,
              "name": "TSVALCD",
              "dataType": "text",
              "length": null,
              "origin": [
                {
                  "type": "__PLACEHOLDER__",
                  "source": "__PLACEHOLDER__"
                }
              ],
              "applicableWhen": [
                "WC.TS.1ddaf371"
              ]
            }
          ]
        },
        {
          "OID": "VL.TS.TSVCDREF",
          "name": "VL_TS_TSVCDREF",
          "type": "ValueList",
          "wasDerivedFrom": "IT.TS.TSVCDREF",
          "items": [
            {
              "OID": "IT.TS.TSVCDREF.RANDOM",
              "mandatory": false,
              "name": "TSVCDREF",
              "dataType": "text",
              "length": null,
              "codeList": "CL.DICTNAM",
              "origin": [
                {
                  "type": "__PLACEHOLDER__",
                  "source": "__PLACEHOLDER__"
                }
              ],
              "applicableWhen": [
                "WC.TS.785f33f2"
              ]
            }
          ]
        },
        {
          "OID": "VL.TS.TSVCDVER",
          "name": "VL_TS_TSVCDVER",
          "type": "ValueList",
          "wasDerivedFrom": "IT.TS.TSVCDVER",
          "items": [
            {
              "OID": "IT.TS.TSVCDVER.RANDOM",
              "mandatory": false,
              "name": "TSVCDVER",
              "dataType": "text",
              "length": null,
              "origin": [
                {
                  "type": "__PLACEHOLDER__",
                  "source": "__PLACEHOLDER__"
                }
              ],
              "applicableWhen": [
                "WC.TS.249d4847"
              ]
            }
          ]
        }
      ]
    },
    {
      "OID": "IG.MH",
      "name": "MH",
      "description": "Medical History",
      "domain": "MH",
      "purpose": "Tabulation",
      "structure": "One record per medical history event per subject",
      "isReferenceData": false,
      "keySequence": [
        "__PLACEHOLDER__"
      ],
      "standard": "STD.SDTMIG",
      "observationClass": {
        "name": "EVENTS"
      },
      "items": [
        {
          "OID": "IT.MH.STUDYID",
          "mandatory": true,
          "name": "STUDYID",
          "description": "Study Identifier",
          "role": "Identifier",
          "dataType": "text",
          "length": null,
          "origin": [
            {
              "type": "__PLACEHOLDER__",
              "source": "__PLACEHOLDER__"
            }
          ]
        },
        {
          "OID": "IT.MH.DOMAIN",
          "mandatory": true,
          "name": "DOMAIN",
          "description": "Domain Abbreviation",
          "role": "Identifier",
          "dataType": "text",
          "length": null,
          "origin": [
            {
              "type": "__PLACEHOLDER__",
              "source": "__PLACEHOLDER__"
            }
          ]
        },
        {
          "OID": "IT.MH.USUBJID",
          "mandatory": true,
          "name": "USUBJID",
          "description": "Unique Subject Identifier",
          "role": "Identifier",
          "dataType": "text",
          "length": null,
          "origin": [
            {
              "type": "__PLACEHOLDER__",
              "source": "__PLACEHOLDER__"
            }
          ]
        },
        {
          "OID": "IT.MH.MHSEQ",
          "mandatory": true,
          "name": "MHSEQ",
          "description": "Sequence Number",
          "role": "Identifier",
          "dataType": "integer",
          "length": null,
          "origin": [
            {
              "type": "__PLACEHOLDER__",
              "source": "__PLACEHOLDER__"
            }
          ]
        },
        {
          "OID": "IT.MH.MHTERM",
          "mandatory": true,
          "name": "MHTERM",
          "description": "Reported Term for the Medical History",
          "role": "Topic",
          "dataType": "text",
          "length": 200,
          "origin": [
            {
              "type": "Collected",
              "source": "Investigator"
            }
          ]
        },
        {
          "OID": "IT.MH.MHDECOD",
          "mandatory": false,
          "name": "MHDECOD",
          "description": "Dictionary-Derived Term",
          "role": "Synonym Qualifier",
          "dataType": "text",
          "length": 200,
          "origin": [
            {
              "type": "Assigned",
              "source": "Sponsor"
            }
          ]
        },
        {
          "OID": "IT.MH.MHCAT",
          "mandatory": false,
          "name": "MHCAT",
          "description": "Category for Medical History",
          "role": "Grouping Qualifier",
          "dataType": "text",
          "length": 200,
          "origin": [
            {
              "type": "Assigned",
              "source": "Sponsor"
            }
          ]
        },
        {
          "OID": "IT.MH.MHSCAT",
          "mandatory": false,
          "name": "MHSCAT",
          "description": "Subcategory for Medical History",
          "role": "Grouping Qualifier",
          "dataType": "text",
          "length": 200,
          "origin": [
            {
              "type": "Assigned",
              "source": "Sponsor"
            }
          ]
        },
        {
          "OID": "IT.MH.MHPRESP",
          "mandatory": false,
          "name": "MHPRESP",
          "description": "Medical History Event Pre-Specified",
          "role": "Variable Qualifier",
          "dataType": "text",
          "length": 1,
          "origin": [
            {
              "type": "Assigned",
              "source": "Sponsor"
            }
          ],
          "codeList": "CL.NY"
        },
        {
          "OID": "IT.MH.MHOCCUR",
          "mandatory": false,
          "name": "MHOCCUR",
          "description": "Medical History Occurrence",
          "role": "Record Qualifier",
          "dataType": "text",
          "length": 1,
          "origin": [
            {
              "type": "Collected",
              "source": "Investigator"
            }
          ],
          "codeList": "CL.NY"
        },
        {
          "OID": "IT.MH.MHSTDTC",
          "mandatory": false,
          "name": "MHSTDTC",
          "description": "Start Date/Time of Medical History Event",
          "role": "Timing",
          "dataType": "datetime",
          "origin": [
            {
              "type": "Collected",
              "source": "Investigator"
            }
          ]
        },
        {
          "OID": "IT.MH.MHENDTC",
          "mandatory": false,
          "name": "MHENDTC",
          "description": "End Date/Time of Medical History Event",
          "role": "Timing",
          "dataType": "datetime",
          "origin": [
            {
              "type": "Collected",
              "source": "Investigator"
            }
          ]
        },
        {
          "OID": "IT.MH.MHENRF",
          "mandatory": false,
          "name": "MHENRF",
          "description": "End Relative to Reference Period",
          "role": "Timing",
          "dataType": "text",
          "length": 20,
          "origin": [
            {
              "type": "Assigned",
              "source": "Sponsor"
            }
          ],
          "codeList": "CL.STENRF"
        },
        {
          "OID": "IT.MH.MHENRTPT",
          "mandatory": false,
          "name": "MHENRTPT",
          "description": "End Relative to Reference Time Point",
          "role": "Timing",
          "dataType": "text",
          "length": 20,
          "origin": [
            {
              "type": "Assigned",
              "source": "Sponsor"
            }
          ],
          "codeList": "CL.STENRF"
        },
        {
          "OID": "IT.MH.MHENTPT",
          "mandatory": false,
          "name": "MHENTPT",
          "description": "End Reference Time Point",
          "role": "Timing",
          "dataType": "text",
          "length": 20,
          "origin": [
            {
              "type": "Assigned",
              "source": "Sponsor"
            }
          ]
        }
      ]
    },
    {
      "OID": "IG.TR",
      "name": "TR",
      "description": "Tumor/Lesion Results",
      "domain": "TR",
      "purpose": "Tabulation",
      "structure": "One record per tumor measurement/assessment per visit per subject per assessor",
      "isReferenceData": false,
      "keySequence": [
        "__PLACEHOLDER__"
      ],
      "standard": "STD.SDTMIG",
      "observationClass": {
        "name": "FINDINGS"
      },
      "items": [
        {
          "OID": "IT.TR.STUDYID",
          "mandatory": true,
          "name": "STUDYID",
          "description": "Study Identifier",
          "role": "Identifier",
          "dataType": "text",
          "length": null,
          "origin": [
            {
              "type": "__PLACEHOLDER__",
              "source": "__PLACEHOLDER__"
            }
          ]
        },
        {
          "OID": "IT.TR.DOMAIN",
          "mandatory": true,
          "name": "DOMAIN",
          "description": "Domain Abbreviation",
          "role": "Identifier",
          "dataType": "text",
          "length": null,
          "origin": [
            {
              "type": "__PLACEHOLDER__",
              "source": "__PLACEHOLDER__"
            }
          ]
        },
        {
          "OID": "IT.TR.USUBJID",
          "mandatory": true,
          "name": "USUBJID",
          "description": "Unique Subject Identifier",
          "role": "Identifier",
          "dataType": "text",
          "length": null,
          "origin": [
            {
              "type": "__PLACEHOLDER__",
              "source": "__PLACEHOLDER__"
            }
          ]
        },
        {
          "OID": "IT.TR.TRSEQ",
          "mandatory": true,
          "name": "TRSEQ",
          "description": "Sequence Number",
          "role": "Identifier",
          "dataType": "integer",
          "length": null,
          "origin": [
            {
              "type": "__PLACEHOLDER__",
              "source": "__PLACEHOLDER__"
            }
          ]
        },
        {
          "OID": "IT.TR.TRGRPID",
          "mandatory": false,
          "name": "TRGRPID",
          "description": "Group ID",
          "role": "Identifier",
          "dataType": "text",
          "length": null,
          "origin": [
            {
              "type": "Assigned",
              "source": "Sponsor"
            }
          ]
        },
        {
          "OID": "IT.TR.TRREFID",
          "mandatory": false,
          "name": "TRREFID",
          "description": "Reference ID",
          "role": "Identifier",
          "dataType": "text",
          "length": null,
          "origin": [
            {
              "type": "Derived",
              "source": "Sponsor"
            }
          ]
        },
        {
          "OID": "IT.TR.TRLNKID",
          "mandatory": false,
          "name": "TRLNKID",
          "description": "Link ID",
          "role": "Identifier",
          "dataType": "text",
          "length": null,
          "origin": [
            {
              "type": "Derived",
              "source": "Sponsor"
            }
          ]
        },
        {
          "OID": "IT.TR.TRLNKGRP",
          "mandatory": false,
          "name": "TRLNKGRP",
          "description": "Link Group",
          "role": "Identifier",
          "dataType": "text",
          "length": null,
          "origin": [
            {
              "type": "Assigned",
              "source": "Sponsor"
            }
          ]
        },
        {
          "OID": "IT.TR.TRTESTCD",
          "mandatory": true,
          "name": "TRTESTCD",
          "description": "Tumor/Lesion Assessment Short Name",
          "role": "Topic",
          "dataType": "text",
          "length": null,
          "origin": [
            {
              "type": "__PLACEHOLDER__",
              "source": "__PLACEHOLDER__"
            }
          ],
          "codeList": "CL.TRTESTCD"
        },
        {
          "OID": "IT.TR.TRTEST",
          "mandatory": true,
          "name": "TRTEST",
          "description": "Tumor/Lesion Assessment Test Name",
          "role": "Synonym Qualifier",
          "dataType": "text",
          "length": null,
          "origin": [
            {
              "type": "__PLACEHOLDER__",
              "source": "__PLACEHOLDER__"
            }
          ],
          "codeList": "CL.TRTEST"
        },
        {
          "OID": "IT.TR.TRORRES",
          "mandatory": false,
          "name": "TRORRES",
          "description": "Result or Finding in Original Units",
          "role": "Result Qualifier",
          "dataType": "text",
          "length": 20,
          "origin": [
            {
              "type": "Collected",
              "source": "Investigator"
            }
          ]
        },
        {
          "OID": "IT.TR.TRORRESU",
          "mandatory": false,
          "name": "TRORRESU",
          "description": "Original Units",
          "role": "Variable Qualifier",
          "dataType": "text",
          "length": 2,
          "origin": [
            {
              "type": "Collected",
              "source": "Investigator"
            }
          ],
          "codeList": "CL.UNIT"
        },
        {
          "OID": "IT.TR.TRSTRESC",
          "mandatory": false,
          "name": "TRSTRESC",
          "description": "Character Result/Finding in Std Format",
          "role": "Result Qualifier",
          "dataType": "text",
          "length": 20,
          "origin": [
            {
              "type": "Derived",
              "source": "Sponsor"
            }
          ],
          "codeList": "CL.TRPROPRS"
        },
        {
          "OID": "IT.TR.TRSTRESN",
          "mandatory": false,
          "name": "TRSTRESN",
          "description": "Numeric Result/Finding in Standard Units",
          "role": "Result Qualifier",
          "dataType": "integer",
          "length": null,
          "origin": [
            {
              "type": "Derived",
              "source": "Sponsor"
            }
          ]
        },
        {
          "OID": "IT.TR.TRSTRESU",
          "mandatory": false,
          "name": "TRSTRESU",
          "description": "Standard Units",
          "role": "Variable Qualifier",
          "dataType": "text",
          "length": 2,
          "origin": [
            {
              "type": "Assigned",
              "source": "Sponsor"
            }
          ],
          "codeList": "CL.UNIT"
        },
        {
          "OID": "IT.TR.TRMETHOD",
          "mandatory": false,
          "name": "TRMETHOD",
          "description": "Method Used to Identify the Tumor/Lesion",
          "role": "Record Qualifier",
          "dataType": "text",
          "length": null,
          "origin": [
            {
              "type": "Collected",
              "source": "Investigator"
            }
          ],
          "codeList": "CL.METHOD"
        },
        {
          "OID": "IT.TR.TRLOBXFL",
          "mandatory": false,
          "name": "TRLOBXFL",
          "description": "Last Observation Before Exposure Flag",
          "role": "Record Qualifier",
          "dataType": "text",
          "length": null,
          "origin": [
            {
              "type": "__PLACEHOLDER__",
              "source": "__PLACEHOLDER__"
            }
          ],
          "codeList": "CL.NY"
        },
        {
          "OID": "IT.TR.TREVAL",
          "mandatory": false,
          "name": "TREVAL",
          "description": "Evaluator",
          "role": "Record Qualifier",
          "dataType": "text",
          "length": null,
          "origin": [
            {
              "type": "Assigned",
              "source": "Sponsor"
            }
          ],
          "codeList": "CL.EVAL"
        },
        {
          "OID": "IT.TR.TREVALID",
          "mandatory": false,
          "name": "TREVALID",
          "description": "Evaluator Identifier",
          "role": "Variable Qualifier",
          "dataType": "text",
          "length": null,
          "origin": [
            {
              "type": "Collected",
              "source": "Vendor"
            }
          ],
          "codeList": "CL.MEDEVAL"
        },
        {
          "OID": "IT.TR.VISITNUM",
          "mandatory": false,
          "name": "VISITNUM",
          "description": "Visit Number",
          "role": "Timing",
          "dataType": "integer",
          "length": null,
          "origin": [
            {
              "type": "__PLACEHOLDER__",
              "source": "__PLACEHOLDER__"
            }
          ]
        },
        {
          "OID": "IT.TR.TRDTC",
          "mandatory": false,
          "name": "TRDTC",
          "description": "Date/Time of Tumor/Lesion Measurement",
          "role": "Timing",
          "dataType": "datetime",
          "origin": [
            {
              "type": "Collected",
              "source": "Investigator"
            }
          ]
        }
      ]
    },
    {
      "OID": "IG.TU",
      "name": "TU",
      "description": "Tumor/Lesion Identification",
      "domain": "TU",
      "purpose": "Tabulation",
      "structure": "One record per identified tumor per subject per assessor",
      "isReferenceData": false,
      "keySequence": [
        "__PLACEHOLDER__"
      ],
      "standard": "STD.SDTMIG",
      "observationClass": {
        "name": "FINDINGS"
      },
      "items": [
        {
          "OID": "IT.TU.STUDYID",
          "mandatory": true,
          "name": "STUDYID",
          "description": "Study Identifier",
          "role": "Identifier",
          "dataType": "text",
          "length": null,
          "origin": [
            {
              "type": "__PLACEHOLDER__",
              "source": "__PLACEHOLDER__"
            }
          ]
        },
        {
          "OID": "IT.TU.DOMAIN",
          "mandatory": true,
          "name": "DOMAIN",
          "description": "Domain Abbreviation",
          "role": "Identifier",
          "dataType": "text",
          "length": null,
          "origin": [
            {
              "type": "__PLACEHOLDER__",
              "source": "__PLACEHOLDER__"
            }
          ]
        },
        {
          "OID": "IT.TU.USUBJID",
          "mandatory": true,
          "name": "USUBJID",
          "description": "Unique Subject Identifier",
          "role": "Identifier",
          "dataType": "text",
          "length": null,
          "origin": [
            {
              "type": "__PLACEHOLDER__",
              "source": "__PLACEHOLDER__"
            }
          ]
        },
        {
          "OID": "IT.TU.TUSEQ",
          "mandatory": true,
          "name": "TUSEQ",
          "description": "Sequence Number",
          "role": "Identifier",
          "dataType": "integer",
          "length": null,
          "origin": [
            {
              "type": "__PLACEHOLDER__",
              "source": "__PLACEHOLDER__"
            }
          ]
        },
        {
          "OID": "IT.TU.TUREFID",
          "mandatory": false,
          "name": "TUREFID",
          "description": "Reference ID",
          "role": "Identifier",
          "dataType": "text",
          "length": null,
          "origin": [
            {
              "type": "Assigned",
              "source": "Sponsor"
            }
          ]
        },
        {
          "OID": "IT.TU.TULNKID",
          "mandatory": false,
          "name": "TULNKID",
          "description": "Link ID",
          "role": "Identifier",
          "dataType": "text",
          "length": null,
          "origin": [
            {
              "type": "Assigned",
              "source": "Sponsor"
            }
          ]
        },
        {
          "OID": "IT.TU.TUTESTCD",
          "mandatory": true,
          "name": "TUTESTCD",
          "description": "Tumor/Lesion ID Short Name",
          "role": "Topic",
          "dataType": "text",
          "length": null,
          "origin": [
            {
              "type": "__PLACEHOLDER__",
              "source": "__PLACEHOLDER__"
            }
          ],
          "codeList": "CL.TUTESTCD"
        },
        {
          "OID": "IT.TU.TUTEST",
          "mandatory": true,
          "name": "TUTEST",
          "description": "Tumor/Lesion ID Test Name",
          "role": "Synonym Qualifier",
          "dataType": "text",
          "length": null,
          "origin": [
            {
              "type": "__PLACEHOLDER__",
              "source": "__PLACEHOLDER__"
            }
          ],
          "codeList": "CL.TUTEST"
        },
        {
          "OID": "IT.TU.TUORRES",
          "mandatory": false,
          "name": "TUORRES",
          "description": "Tumor/Lesion ID Result",
          "role": "Result Qualifier",
          "dataType": "text",
          "length": 1
        },
        {
          "OID": "IT.TU.TUSTRESC",
          "mandatory": false,
          "name": "TUSTRESC",
          "description": "Tumor/Lesion ID Result Std. Format",
          "role": "Result Qualifier",
          "dataType": "text",
          "length": 1,
          "origin": [
            {
              "type": "Derived",
              "source": "Sponsor"
            }
          ],
          "codeList": "CL.TUIDRS"
        },
        {
          "OID": "IT.TU.TULOC",
          "mandatory": false,
          "name": "TULOC",
          "description": "Location of the Tumor/Lesion",
          "role": "Record Qualifier",
          "dataType": "text",
          "length": null,
          "origin": [
            {
              "type": "Collected",
              "source": "Investigator"
            }
          ],
          "codeList": "CL.LOC"
        },
        {
          "OID": "IT.TU.TULAT",
          "mandatory": false,
          "name": "TULAT",
          "description": "Laterality",
          "role": "Variable Qualifier",
          "dataType": "text",
          "length": null,
          "origin": [
            {
              "type": "Collected",
              "source": "Investigator"
            }
          ],
          "codeList": "CL.LAT"
        },
        {
          "OID": "IT.TU.TUDIR",
          "mandatory": false,
          "name": "TUDIR",
          "description": "Directionality",
          "role": "Variable Qualifier",
          "dataType": "text",
          "length": null,
          "origin": [
            {
              "type": "Collected",
              "source": "Investigator"
            }
          ],
          "codeList": "CL.DIR"
        },
        {
          "OID": "IT.TU.TUMETHOD",
          "mandatory": false,
          "name": "TUMETHOD",
          "description": "Method of Identification",
          "role": "Record Qualifier",
          "dataType": "text",
          "length": null,
          "origin": [
            {
              "type": "Collected",
              "source": "Investigator"
            }
          ],
          "codeList": "CL.METHOD"
        },
        {
          "OID": "IT.TU.TULOBXFL",
          "mandatory": false,
          "name": "TULOBXFL",
          "description": "Last Observation Before Exposure Flag",
          "role": "Record Qualifier",
          "dataType": "text",
          "length": null,
          "origin": [
            {
              "type": "__PLACEHOLDER__",
              "source": "__PLACEHOLDER__"
            }
          ],
          "codeList": "CL.NY"
        },
        {
          "OID": "IT.TU.TUEVAL",
          "mandatory": false,
          "name": "TUEVAL",
          "description": "Evaluator",
          "role": "Record Qualifier",
          "dataType": "text",
          "length": null,
          "origin": [
            {
              "type": "Assigned",
              "source": "Sponsor"
            }
          ],
          "codeList": "CL.EVAL"
        },
        {
          "OID": "IT.TU.TUEVALID",
          "mandatory": false,
          "name": "TUEVALID",
          "description": "Evaluator Identifier",
          "role": "Variable Qualifier",
          "dataType": "text",
          "length": null,
          "origin": [
            {
              "type": "Collected",
              "source": "Vendor"
            }
          ],
          "codeList": "CL.MEDEVAL"
        },
        {
          "OID": "IT.TU.VISITNUM",
          "mandatory": false,
          "name": "VISITNUM",
          "description": "Visit Number",
          "role": "Timing",
          "dataType": "integer",
          "length": null,
          "origin": [
            {
              "type": "__PLACEHOLDER__",
              "source": "__PLACEHOLDER__"
            }
          ]
        },
        {
          "OID": "IT.TU.TUDTC",
          "mandatory": false,
          "name": "TUDTC",
          "description": "Date/Time of Tumor/Lesion Identification",
          "role": "Timing",
          "dataType": "datetime",
          "origin": [
            {
              "type": "Collected",
              "source": "Investigator"
            }
          ]
        }
      ],
      "slices": [
        {
          "OID": "VL.TU.TUORRES",
          "name": "VL_TU_TUORRES",
          "type": "ValueList",
          "wasDerivedFrom": "IT.TU.TUORRES",
          "items": [
            {
              "OID": "IT.TU.TUORRES.TUMIDENT",
              "mandatory": false,
              "name": "TUORRES",
              "dataType": "text",
              "length": 10,
              "codeList": "CL.TUIDRS",
              "origin": [
                {
                  "type": "Collected",
                  "source": "Investigator"
                }
              ],
              "applicableWhen": [
                "WC.TU.383816b9"
              ]
            }
          ]
        }
      ]
    },
    {
      "OID": "IG.RE",
      "name": "RE",
      "description": "Respiratory System Findings",
      "domain": "RE",
      "purpose": "Tabulation",
      "structure": "One record per finding or result per time point per visit per subject",
      "isReferenceData": false,
      "keySequence": [
        "__PLACEHOLDER__"
      ],
      "standard": "STD.SDTMIG",
      "observationClass": {
        "name": "FINDINGS"
      },
      "items": [
        {
          "OID": "IT.RE.STUDYID",
          "mandatory": true,
          "name": "STUDYID",
          "description": "Study Identifier",
          "role": "Identifier",
          "dataType": "text",
          "length": null,
          "origin": [
            {
              "type": "__PLACEHOLDER__",
              "source": "__PLACEHOLDER__"
            }
          ]
        },
        {
          "OID": "IT.RE.DOMAIN",
          "mandatory": true,
          "name": "DOMAIN",
          "description": "Domain Abbreviation",
          "role": "Identifier",
          "dataType": "text",
          "length": null,
          "origin": [
            {
              "type": "__PLACEHOLDER__",
              "source": "__PLACEHOLDER__"
            }
          ]
        },
        {
          "OID": "IT.RE.USUBJID",
          "mandatory": true,
          "name": "USUBJID",
          "description": "Unique Subject Identifier",
          "role": "Identifier",
          "dataType": "text",
          "length": null,
          "origin": [
            {
              "type": "__PLACEHOLDER__",
              "source": "__PLACEHOLDER__"
            }
          ]
        },
        {
          "OID": "IT.RE.RESEQ",
          "mandatory": true,
          "name": "RESEQ",
          "description": "Sequence Number",
          "role": "Identifier",
          "dataType": "integer",
          "length": null,
          "origin": [
            {
              "type": "__PLACEHOLDER__",
              "source": "__PLACEHOLDER__"
            }
          ]
        },
        {
          "OID": "IT.RE.RETESTCD",
          "mandatory": true,
          "name": "RETESTCD",
          "description": "Short Name of Respiratory Test",
          "role": "Topic",
          "dataType": "text",
          "length": null,
          "origin": [
            {
              "type": "__PLACEHOLDER__",
              "source": "__PLACEHOLDER__"
            }
          ],
          "codeList": "CL.RETESTCD"
        },
        {
          "OID": "IT.RE.RETEST",
          "mandatory": true,
          "name": "RETEST",
          "description": "Name of Respiratory Test",
          "role": "Synonym Qualifier",
          "dataType": "text",
          "length": null,
          "origin": [
            {
              "type": "__PLACEHOLDER__",
              "source": "__PLACEHOLDER__"
            }
          ],
          "codeList": "CL.RETEST"
        },
        {
          "OID": "IT.RE.REORRES",
          "mandatory": false,
          "name": "REORRES",
          "description": "Result or Finding in Original Units",
          "role": "Result Qualifier",
          "dataType": "float",
          "length": 8,
          "displayFormat": "8.3",
          "significantDigits": 3
        },
        {
          "OID": "IT.RE.REORRESU",
          "mandatory": false,
          "name": "REORRESU",
          "description": "Original Units",
          "role": "Variable Qualifier",
          "dataType": "text",
          "length": 20
        },
        {
          "OID": "IT.RE.RESTRESC",
          "mandatory": false,
          "name": "RESTRESC",
          "description": "Character Result/Finding in Std Format",
          "role": "Result Qualifier",
          "dataType": "float",
          "length": 8,
          "displayFormat": "8.3",
          "significantDigits": 3,
          "origin": [
            {
              "type": "Derived",
              "source": "Sponsor"
            }
          ]
        },
        {
          "OID": "IT.RE.RESTRESN",
          "mandatory": false,
          "name": "RESTRESN",
          "description": "Numeric Result/Finding in Standard Units",
          "role": "Result Qualifier",
          "dataType": "float",
          "length": 8,
          "displayFormat": "8.3",
          "significantDigits": 3,
          "origin": [
            {
              "type": "Derived",
              "source": "Sponsor"
            }
          ]
        },
        {
          "OID": "IT.RE.RESTRESU",
          "mandatory": false,
          "name": "RESTRESU",
          "description": "Standard Units",
          "role": "Variable Qualifier",
          "dataType": "text",
          "length": 20,
          "origin": [
            {
              "type": "Assigned",
              "source": "Sponsor"
            }
          ],
          "codeList": "CL.UNIT"
        },
        {
          "OID": "IT.RE.RELOBXFL",
          "mandatory": false,
          "name": "RELOBXFL",
          "description": "Last Observation Before Exposure Flag",
          "role": "Record Qualifier",
          "dataType": "text",
          "length": null,
          "origin": [
            {
              "type": "__PLACEHOLDER__",
              "source": "__PLACEHOLDER__"
            }
          ],
          "codeList": "CL.NY"
        },
        {
          "OID": "IT.RE.VISITNUM",
          "mandatory": false,
          "name": "VISITNUM",
          "description": "Visit Number",
          "role": "Timing",
          "dataType": "integer",
          "length": null,
          "origin": [
            {
              "type": "__PLACEHOLDER__",
              "source": "__PLACEHOLDER__"
            }
          ]
        },
        {
          "OID": "IT.RE.REDTC",
          "mandatory": false,
          "name": "REDTC",
          "description": "Date/Time of Collection",
          "role": "Timing",
          "dataType": "datetime",
          "origin": [
            {
              "type": "__PLACEHOLDER__",
              "source": "__PLACEHOLDER__"
            }
          ]
        }
      ],
      "slices": [
        {
          "OID": "VL.RE.REORRES",
          "name": "VL_RE_REORRES",
          "type": "ValueList",
          "wasDerivedFrom": "IT.RE.REORRES",
          "items": [
            {
              "OID": "IT.RE.REORRES.FVC",
              "mandatory": false,
              "name": "REORRES",
              "dataType": "float",
              "length": 8,
              "displayFormat": "8.3",
              "significantDigits": 3,
              "origin": [
                {
                  "type": "Collected",
                  "source": "Investigator"
                }
              ],
              "applicableWhen": [
                "WC.RE.18cdaa4f"
              ]
            },
            {
              "OID": "IT.RE.REORRES.FEV1",
              "mandatory": false,
              "name": "REORRES",
              "dataType": "float",
              "length": 8,
              "displayFormat": "8.3",
              "significantDigits": 3,
              "origin": [
                {
                  "type": "Collected",
                  "source": "Investigator"
                }
              ],
              "applicableWhen": [
                "WC.RE.cb2b3d28"
              ]
            },
            {
              "OID": "IT.RE.REORRES.FEV6",
              "mandatory": false,
              "name": "REORRES",
              "dataType": "float",
              "length": 8,
              "displayFormat": "8.3",
              "significantDigits": 3,
              "origin": [
                {
                  "type": "Collected",
                  "source": "Investigator"
                }
              ],
              "applicableWhen": [
                "WC.RE.34fbde31"
              ]
            },
            {
              "OID": "IT.RE.REORRES.PEF",
              "mandatory": false,
              "name": "REORRES",
              "dataType": "float",
              "length": 8,
              "displayFormat": "8.3",
              "significantDigits": 3,
              "origin": [
                {
                  "type": "Collected",
                  "source": "Investigator"
                }
              ],
              "applicableWhen": [
                "WC.RE.5eff62e7"
              ]
            },
            {
              "OID": "IT.RE.REORRES.TV",
              "mandatory": false,
              "name": "REORRES",
              "dataType": "float",
              "length": 8,
              "displayFormat": "8.3",
              "significantDigits": 3,
              "origin": [
                {
                  "type": "Collected",
                  "source": "Investigator"
                }
              ],
              "applicableWhen": [
                "WC.RE.c8378716"
              ]
            },
            {
              "OID": "IT.RE.REORRES.IC",
              "mandatory": false,
              "name": "REORRES",
              "dataType": "float",
              "length": 8,
              "displayFormat": "8.3",
              "significantDigits": 3,
              "origin": [
                {
                  "type": "Collected",
                  "source": "Investigator"
                }
              ],
              "applicableWhen": [
                "WC.RE.a143d5ab"
              ]
            },
            {
              "OID": "IT.RE.REORRES.ERV",
              "mandatory": false,
              "name": "REORRES",
              "dataType": "float",
              "length": 8,
              "displayFormat": "8.3",
              "significantDigits": 3,
              "origin": [
                {
                  "type": "Collected",
                  "source": "Investigator"
                }
              ],
              "applicableWhen": [
                "WC.RE.00407b15"
              ]
            },
            {
              "OID": "IT.RE.REORRES.IRV",
              "mandatory": false,
              "name": "REORRES",
              "dataType": "float",
              "length": 8,
              "displayFormat": "8.3",
              "significantDigits": 3,
              "origin": [
                {
                  "type": "Collected",
                  "source": "Investigator"
                }
              ],
              "applicableWhen": [
                "WC.RE.e149d834"
              ]
            },
            {
              "OID": "IT.RE.REORRES.SVC",
              "mandatory": false,
              "name": "REORRES",
              "dataType": "float",
              "length": 8,
              "displayFormat": "8.3",
              "significantDigits": 3,
              "origin": [
                {
                  "type": "Collected",
                  "source": "Investigator"
                }
              ],
              "applicableWhen": [
                "WC.RE.6299e608"
              ]
            }
          ]
        },
        {
          "OID": "VL.RE.REORRESU",
          "name": "VL_RE_REORRESU",
          "type": "ValueList",
          "wasDerivedFrom": "IT.RE.REORRESU",
          "items": [
            {
              "OID": "IT.RE.REORRESU.FVC",
              "mandatory": false,
              "name": "REORRESU",
              "dataType": "text",
              "length": 20,
              "codeList": "CL.UNIT",
              "origin": [
                {
                  "type": "Collected",
                  "source": "Investigator"
                }
              ],
              "applicableWhen": [
                "WC.RE.3b955183"
              ]
            },
            {
              "OID": "IT.RE.REORRESU.FEV1",
              "mandatory": false,
              "name": "REORRESU",
              "dataType": "text",
              "length": 20,
              "codeList": "CL.UNIT",
              "origin": [
                {
                  "type": "Collected",
                  "source": "Investigator"
                }
              ],
              "applicableWhen": [
                "WC.RE.a56b92e2"
              ]
            },
            {
              "OID": "IT.RE.REORRESU.FEV6",
              "mandatory": false,
              "name": "REORRESU",
              "dataType": "text",
              "length": 20,
              "codeList": "CL.UNIT",
              "origin": [
                {
                  "type": "Collected",
                  "source": "Investigator"
                }
              ],
              "applicableWhen": [
                "WC.RE.e7f8b8c7"
              ]
            },
            {
              "OID": "IT.RE.REORRESU.PEF",
              "mandatory": false,
              "name": "REORRESU",
              "dataType": "text",
              "length": 20,
              "codeList": "CL.UNIT",
              "origin": [
                {
                  "type": "Collected",
                  "source": "Investigator"
                }
              ],
              "applicableWhen": [
                "WC.RE.84534d89"
              ]
            },
            {
              "OID": "IT.RE.REORRESU.TV",
              "mandatory": false,
              "name": "REORRESU",
              "dataType": "text",
              "length": 20,
              "codeList": "CL.UNIT",
              "origin": [
                {
                  "type": "Collected",
                  "source": "Investigator"
                }
              ],
              "applicableWhen": [
                "WC.RE.7806fec1"
              ]
            },
            {
              "OID": "IT.RE.REORRESU.IC",
              "mandatory": false,
              "name": "REORRESU",
              "dataType": "text",
              "length": 20,
              "codeList": "CL.UNIT",
              "origin": [
                {
                  "type": "Collected",
                  "source": "Investigator"
                }
              ],
              "applicableWhen": [
                "WC.RE.b5d740d0"
              ]
            },
            {
              "OID": "IT.RE.REORRESU.ERV",
              "mandatory": false,
              "name": "REORRESU",
              "dataType": "text",
              "length": 20,
              "codeList": "CL.UNIT",
              "origin": [
                {
                  "type": "Collected",
                  "source": "Investigator"
                }
              ],
              "applicableWhen": [
                "WC.RE.22ce03a1"
              ]
            },
            {
              "OID": "IT.RE.REORRESU.IRV",
              "mandatory": false,
              "name": "REORRESU",
              "dataType": "text",
              "length": 20,
              "codeList": "CL.UNIT",
              "origin": [
                {
                  "type": "Collected",
                  "source": "Investigator"
                }
              ],
              "applicableWhen": [
                "WC.RE.489d8e20"
              ]
            },
            {
              "OID": "IT.RE.REORRESU.SVC",
              "mandatory": false,
              "name": "REORRESU",
              "dataType": "text",
              "length": 20,
              "codeList": "CL.UNIT",
              "origin": [
                {
                  "type": "Collected",
                  "source": "Investigator"
                }
              ],
              "applicableWhen": [
                "WC.RE.2ce12760"
              ]
            }
          ]
        }
      ]
    },
    {
      "OID": "IG.MB",
      "name": "MB",
      "description": "Microbiology Specimen",
      "domain": "MB",
      "purpose": "Tabulation",
      "structure": "One record per microbiology specimen finding per time point per visit per subject",
      "isReferenceData": false,
      "keySequence": [
        "__PLACEHOLDER__"
      ],
      "standard": "STD.SDTMIG",
      "observationClass": {
        "name": "FINDINGS"
      },
      "items": [
        {
          "OID": "IT.MB.STUDYID",
          "mandatory": true,
          "name": "STUDYID",
          "description": "Study Identifier",
          "role": "Identifier",
          "dataType": "text",
          "length": null,
          "origin": [
            {
              "type": "__PLACEHOLDER__",
              "source": "__PLACEHOLDER__"
            }
          ]
        },
        {
          "OID": "IT.MB.DOMAIN",
          "mandatory": true,
          "name": "DOMAIN",
          "description": "Domain Abbreviation",
          "role": "Identifier",
          "dataType": "text",
          "length": null,
          "origin": [
            {
              "type": "__PLACEHOLDER__",
              "source": "__PLACEHOLDER__"
            }
          ]
        },
        {
          "OID": "IT.MB.USUBJID",
          "mandatory": true,
          "name": "USUBJID",
          "description": "Unique Subject Identifier",
          "role": "Identifier",
          "dataType": "text",
          "length": null,
          "origin": [
            {
              "type": "__PLACEHOLDER__",
              "source": "__PLACEHOLDER__"
            }
          ]
        },
        {
          "OID": "IT.MB.MBSEQ",
          "mandatory": true,
          "name": "MBSEQ",
          "description": "Sequence Number",
          "role": "Identifier",
          "dataType": "integer",
          "length": null,
          "origin": [
            {
              "type": "__PLACEHOLDER__",
              "source": "__PLACEHOLDER__"
            }
          ]
        },
        {
          "OID": "IT.MB.MBTESTCD",
          "mandatory": true,
          "name": "MBTESTCD",
          "description": "Microbiology Test or Finding Short Name",
          "role": "Topic",
          "dataType": "text",
          "length": null,
          "origin": [
            {
              "type": "__PLACEHOLDER__",
              "source": "__PLACEHOLDER__"
            }
          ],
          "codeList": "CL.MBTESTCD"
        },
        {
          "OID": "IT.MB.MBTEST",
          "mandatory": true,
          "name": "MBTEST",
          "description": "Microbiology Test or Finding Name",
          "role": "Synonym Qualifier",
          "dataType": "text",
          "length": null,
          "origin": [
            {
              "type": "__PLACEHOLDER__",
              "source": "__PLACEHOLDER__"
            }
          ],
          "codeList": "CL.MBTEST"
        },
        {
          "OID": "IT.MB.MBTSTDTL",
          "mandatory": false,
          "name": "MBTSTDTL",
          "description": "Measurement, Test or Examination Detail",
          "role": "Variable Qualifier",
          "dataType": "text",
          "length": null,
          "origin": [
            {
              "type": "__PLACEHOLDER__",
              "source": "__PLACEHOLDER__"
            }
          ],
          "codeList": "CL.MBFTSDTL"
        },
        {
          "OID": "IT.MB.MBORRES",
          "mandatory": false,
          "name": "MBORRES",
          "description": "Result or Finding in Original Units",
          "role": "Result Qualifier",
          "dataType": "float",
          "length": 12,
          "displayFormat": "12.4",
          "significantDigits": 4
        },
        {
          "OID": "IT.MB.MBORRESU",
          "mandatory": false,
          "name": "MBORRESU",
          "description": "Original Units",
          "role": "Variable Qualifier",
          "dataType": "text",
          "length": 20
        },
        {
          "OID": "IT.MB.MBSTRESC",
          "mandatory": false,
          "name": "MBSTRESC",
          "description": "Result or Finding in Standard Format",
          "role": "Result Qualifier",
          "dataType": "float",
          "length": 12,
          "displayFormat": "12.4",
          "significantDigits": 4,
          "origin": [
            {
              "type": "Derived",
              "source": "Vendor"
            }
          ]
        },
        {
          "OID": "IT.MB.MBSTRESN",
          "mandatory": false,
          "name": "MBSTRESN",
          "description": "Numeric Result/Finding in Standard Units",
          "role": "Result Qualifier",
          "dataType": "float",
          "length": 12,
          "displayFormat": "12.4",
          "significantDigits": 4,
          "origin": [
            {
              "type": "Derived",
              "source": "Vendor"
            }
          ]
        },
        {
          "OID": "IT.MB.MBSTRESU",
          "mandatory": false,
          "name": "MBSTRESU",
          "description": "Standard Units",
          "role": "Variable Qualifier",
          "dataType": "text",
          "length": 20,
          "origin": [
            {
              "type": "Assigned",
              "source": "Vendor"
            }
          ],
          "codeList": "CL.UNIT"
        },
        {
          "OID": "IT.MB.MBSPEC",
          "mandatory": false,
          "name": "MBSPEC",
          "description": "Specimen Material Type",
          "role": "Record Qualifier",
          "dataType": "text",
          "length": null,
          "origin": [
            {
              "type": "__PLACEHOLDER__",
              "source": "__PLACEHOLDER__"
            }
          ],
          "codeList": "CL.SPECTYPE"
        },
        {
          "OID": "IT.MB.MBMETHOD",
          "mandatory": false,
          "name": "MBMETHOD",
          "description": "Method of Test or Examination",
          "role": "Record Qualifier",
          "dataType": "text",
          "length": null,
          "origin": [
            {
              "type": "__PLACEHOLDER__",
              "source": "__PLACEHOLDER__"
            }
          ],
          "codeList": "CL.METHOD"
        },
        {
          "OID": "IT.MB.VISITNUM",
          "mandatory": false,
          "name": "VISITNUM",
          "description": "Visit Number",
          "role": "Timing",
          "dataType": "integer",
          "length": null,
          "origin": [
            {
              "type": "__PLACEHOLDER__",
              "source": "__PLACEHOLDER__"
            }
          ]
        },
        {
          "OID": "IT.MB.MBDTC",
          "mandatory": false,
          "name": "MBDTC",
          "description": "Date/Time of Collection",
          "role": "Timing",
          "dataType": "datetime",
          "origin": [
            {
              "type": "__PLACEHOLDER__",
              "source": "__PLACEHOLDER__"
            }
          ]
        }
      ],
      "slices": [
        {
          "OID": "VL.MB.MBORRES",
          "name": "VL_MB_MBORRES",
          "type": "ValueList",
          "wasDerivedFrom": "IT.MB.MBORRES",
          "items": [
            {
              "OID": "IT.MB.MBORRES.HCRNA",
              "mandatory": false,
              "name": "MBORRES",
              "dataType": "float",
              "length": 12,
              "displayFormat": "12.4",
              "significantDigits": 4,
              "origin": [
                {
                  "type": "Collected",
                  "source": "Vendor"
                }
              ],
              "applicableWhen": [
                "WC.MB.d0d71062"
              ]
            },
            {
              "OID": "IT.MB.MBORRES.HBDNA",
              "mandatory": false,
              "name": "MBORRES",
              "dataType": "float",
              "length": 12,
              "displayFormat": "12.4",
              "significantDigits": 4,
              "origin": [
                {
                  "type": "Collected",
                  "source": "Vendor"
                }
              ],
              "applicableWhen": [
                "WC.MB.084126ac"
              ]
            }
          ]
        },
        {
          "OID": "VL.MB.MBORRESU",
          "name": "VL_MB_MBORRESU",
          "type": "ValueList",
          "wasDerivedFrom": "IT.MB.MBORRESU",
          "items": [
            {
              "OID": "IT.MB.MBORRESU.HCRNA",
              "mandatory": false,
              "name": "MBORRESU",
              "dataType": "text",
              "length": 20,
              "codeList": "CL.UNIT",
              "origin": [
                {
                  "type": "Collected",
                  "source": "Vendor"
                }
              ],
              "applicableWhen": [
                "WC.MB.cfc45652"
              ]
            },
            {
              "OID": "IT.MB.MBORRESU.HBDNA",
              "mandatory": false,
              "name": "MBORRESU",
              "dataType": "text",
              "length": 20,
              "codeList": "CL.UNIT",
              "origin": [
                {
                  "type": "Collected",
                  "source": "Vendor"
                }
              ],
              "applicableWhen": [
                "WC.MB.2c69c89c"
              ]
            }
          ]
        }
      ]
    },
    {
      "OID": "IG.EC",
      "name": "EC",
      "description": "Exposure as Collected",
      "domain": "EC",
      "purpose": "Tabulation",
      "structure": "One record per protocol-specified study treatment, collected-dosing interval, per subject, per mood",
      "isReferenceData": false,
      "keySequence": [
        "__PLACEHOLDER__"
      ],
      "standard": "STD.SDTMIG",
      "observationClass": {
        "name": "INTERVENTIONS"
      },
      "items": [
        {
          "OID": "IT.EC.STUDYID",
          "mandatory": true,
          "name": "STUDYID",
          "description": "Study Identifier",
          "role": "Identifier",
          "dataType": "text",
          "length": null,
          "origin": [
            {
              "type": "__PLACEHOLDER__",
              "source": "__PLACEHOLDER__"
            }
          ]
        },
        {
          "OID": "IT.EC.DOMAIN",
          "mandatory": true,
          "name": "DOMAIN",
          "description": "Domain Abbreviation",
          "role": "Identifier",
          "dataType": "text",
          "length": null,
          "origin": [
            {
              "type": "__PLACEHOLDER__",
              "source": "__PLACEHOLDER__"
            }
          ]
        },
        {
          "OID": "IT.EC.USUBJID",
          "mandatory": true,
          "name": "USUBJID",
          "description": "Unique Subject Identifier",
          "role": "Identifier",
          "dataType": "text",
          "length": null,
          "origin": [
            {
              "type": "__PLACEHOLDER__",
              "source": "__PLACEHOLDER__"
            }
          ]
        },
        {
          "OID": "IT.EC.ECSEQ",
          "mandatory": true,
          "name": "ECSEQ",
          "description": "Sequence Number",
          "role": "Identifier",
          "dataType": "integer",
          "length": null,
          "origin": [
            {
              "type": "__PLACEHOLDER__",
              "source": "__PLACEHOLDER__"
            }
          ]
        },
        {
          "OID": "IT.EC.ECREFID",
          "mandatory": false,
          "name": "ECREFID",
          "description": "Reference ID",
          "role": "Identifier",
          "dataType": "text",
          "length": null,
          "origin": [
            {
              "type": "Collected",
              "source": "Investigator"
            }
          ]
        },
        {
          "OID": "IT.EC.ECTRT",
          "mandatory": true,
          "name": "ECTRT",
          "description": "Name of Treatment",
          "role": "Topic",
          "dataType": "text",
          "length": 200,
          "origin": [
            {
              "type": "Collected",
              "source": "Investigator"
            }
          ]
        },
        {
          "OID": "IT.EC.ECDOSE",
          "mandatory": false,
          "name": "ECDOSE",
          "description": "Dose",
          "role": "Record Qualifier",
          "dataType": "integer",
          "length": 20,
          "origin": [
            {
              "type": "Collected",
              "source": "Investigator"
            }
          ]
        },
        {
          "OID": "IT.EC.ECDOSTXT",
          "mandatory": false,
          "name": "ECDOSTXT",
          "description": "Dose Description",
          "role": "Record Qualifier",
          "dataType": "text",
          "length": 100,
          "origin": [
            {
              "type": "Collected",
              "source": "Investigator"
            }
          ]
        },
        {
          "OID": "IT.EC.ECDOSU",
          "mandatory": false,
          "name": "ECDOSU",
          "description": "Dose Units",
          "role": "Variable Qualifier",
          "dataType": "text",
          "length": 200,
          "origin": [
            {
              "type": "Collected",
              "source": "Investigator"
            }
          ],
          "codeList": "CL.UNIT"
        },
        {
          "OID": "IT.EC.ECDOSFRM",
          "mandatory": false,
          "name": "ECDOSFRM",
          "description": "Dose Form",
          "role": "Variable Qualifier",
          "dataType": "text",
          "length": 200,
          "origin": [
            {
              "type": "Collected",
              "source": "Investigator"
            }
          ],
          "codeList": "CL.FRM"
        },
        {
          "OID": "IT.EC.ECDOSFRQ",
          "mandatory": false,
          "name": "ECDOSFRQ",
          "description": "Dosing Frequency per Interval",
          "role": "Record Qualifier",
          "dataType": "text",
          "length": 200,
          "origin": [
            {
              "type": "Collected",
              "source": "Investigator"
            }
          ],
          "codeList": "CL.FREQ"
        },
        {
          "OID": "IT.EC.ECDOSRGM",
          "mandatory": false,
          "name": "ECDOSRGM",
          "description": "Intended Dose Regimen",
          "role": "Record Qualifier",
          "dataType": "text",
          "length": null,
          "origin": [
            {
              "type": "Collected",
              "source": "Investigator"
            }
          ]
        },
        {
          "OID": "IT.EC.ECROUTE",
          "mandatory": false,
          "name": "ECROUTE",
          "description": "Route of Administration",
          "role": "Variable Qualifier",
          "dataType": "text",
          "length": 200,
          "origin": [
            {
              "type": "Collected",
              "source": "Investigator"
            }
          ],
          "codeList": "CL.ROUTE"
        },
        {
          "OID": "IT.EC.ECLOC",
          "mandatory": false,
          "name": "ECLOC",
          "description": "Location of Dose Administration",
          "role": "Record Qualifier",
          "dataType": "text",
          "length": 200,
          "origin": [
            {
              "type": "Collected",
              "source": "Investigator"
            }
          ],
          "codeList": "CL.LOC"
        },
        {
          "OID": "IT.EC.ECLAT",
          "mandatory": false,
          "name": "ECLAT",
          "description": "Laterality",
          "role": "Variable Qualifier",
          "dataType": "text",
          "length": 200,
          "origin": [
            {
              "type": "Collected",
              "source": "Investigator"
            }
          ],
          "codeList": "CL.LAT"
        },
        {
          "OID": "IT.EC.ECDIR",
          "mandatory": false,
          "name": "ECDIR",
          "description": "Directionality",
          "role": "Variable Qualifier",
          "dataType": "text",
          "length": null,
          "origin": [
            {
              "type": "Collected",
              "source": "Investigator"
            }
          ],
          "codeList": "CL.DIR"
        },
        {
          "OID": "IT.EC.ECSTDTC",
          "mandatory": false,
          "name": "ECSTDTC",
          "description": "Start Date/Time of Treatment",
          "role": "Timing",
          "dataType": "datetime",
          "origin": [
            {
              "type": "__PLACEHOLDER__",
              "source": "__PLACEHOLDER__"
            }
          ]
        },
        {
          "OID": "IT.EC.ECENDTC",
          "mandatory": false,
          "name": "ECENDTC",
          "description": "End Date/Time of Treatment",
          "role": "Timing",
          "dataType": "datetime",
          "origin": [
            {
              "type": "__PLACEHOLDER__",
              "source": "__PLACEHOLDER__"
            }
          ]
        }
      ]
    },
    {
      "OID": "IG.AE",
      "name": "AE",
      "description": "Adverse Events",
      "domain": "AE",
      "purpose": "Tabulation",
      "structure": "One record per adverse event per subject",
      "isReferenceData": false,
      "keySequence": [
        "__PLACEHOLDER__"
      ],
      "standard": "STD.SDTMIG",
      "observationClass": {
        "name": "EVENTS"
      },
      "items": [
        {
          "OID": "IT.AE.STUDYID",
          "mandatory": true,
          "name": "STUDYID",
          "description": "Study Identifier",
          "role": "Identifier",
          "dataType": "text",
          "length": null,
          "origin": [
            {
              "type": "__PLACEHOLDER__",
              "source": "__PLACEHOLDER__"
            }
          ]
        },
        {
          "OID": "IT.AE.DOMAIN",
          "mandatory": true,
          "name": "DOMAIN",
          "description": "Domain Abbreviation",
          "role": "Identifier",
          "dataType": "text",
          "length": null,
          "origin": [
            {
              "type": "__PLACEHOLDER__",
              "source": "__PLACEHOLDER__"
            }
          ]
        },
        {
          "OID": "IT.AE.USUBJID",
          "mandatory": true,
          "name": "USUBJID",
          "description": "Unique Subject Identifier",
          "role": "Identifier",
          "dataType": "text",
          "length": null,
          "origin": [
            {
              "type": "__PLACEHOLDER__",
              "source": "__PLACEHOLDER__"
            }
          ]
        },
        {
          "OID": "IT.AE.AESEQ",
          "mandatory": true,
          "name": "AESEQ",
          "description": "Sequence Number",
          "role": "Identifier",
          "dataType": "integer",
          "length": null,
          "origin": [
            {
              "type": "__PLACEHOLDER__",
              "source": "__PLACEHOLDER__"
            }
          ]
        },
        {
          "OID": "IT.AE.AETERM",
          "mandatory": true,
          "name": "AETERM",
          "description": "Reported Term for the Adverse Event",
          "role": "Topic",
          "dataType": "text",
          "length": 200,
          "origin": [
            {
              "type": "Collected",
              "source": "Investigator"
            }
          ]
        },
        {
          "OID": "IT.AE.AELLT",
          "mandatory": false,
          "name": "AELLT",
          "description": "Lowest Level Term",
          "role": "Variable Qualifier",
          "dataType": "text",
          "length": null,
          "origin": [
            {
              "type": "__PLACEHOLDER__",
              "source": "__PLACEHOLDER__"
            }
          ]
        },
        {
          "OID": "IT.AE.AELLTCD",
          "mandatory": false,
          "name": "AELLTCD",
          "description": "Lowest Level Term Code",
          "role": "Variable Qualifier",
          "dataType": "integer",
          "length": null,
          "origin": [
            {
              "type": "__PLACEHOLDER__",
              "source": "__PLACEHOLDER__"
            }
          ]
        },
        {
          "OID": "IT.AE.AEDECOD",
          "mandatory": true,
          "name": "AEDECOD",
          "description": "Dictionary-Derived Term",
          "role": "Synonym Qualifier",
          "dataType": "text",
          "length": 200,
          "origin": [
            {
              "type": "Assigned",
              "source": "Sponsor"
            }
          ]
        },
        {
          "OID": "IT.AE.AEPTCD",
          "mandatory": false,
          "name": "AEPTCD",
          "description": "Preferred Term Code",
          "role": "Variable Qualifier",
          "dataType": "integer",
          "length": null,
          "origin": [
            {
              "type": "__PLACEHOLDER__",
              "source": "__PLACEHOLDER__"
            }
          ]
        },
        {
          "OID": "IT.AE.AEHLT",
          "mandatory": false,
          "name": "AEHLT",
          "description": "High Level Term",
          "role": "Variable Qualifier",
          "dataType": "text",
          "length": null,
          "origin": [
            {
              "type": "__PLACEHOLDER__",
              "source": "__PLACEHOLDER__"
            }
          ]
        },
        {
          "OID": "IT.AE.AEHLTCD",
          "mandatory": false,
          "name": "AEHLTCD",
          "description": "High Level Term Code",
          "role": "Variable Qualifier",
          "dataType": "integer",
          "length": null,
          "origin": [
            {
              "type": "__PLACEHOLDER__",
              "source": "__PLACEHOLDER__"
            }
          ]
        },
        {
          "OID": "IT.AE.AEHLGT",
          "mandatory": false,
          "name": "AEHLGT",
          "description": "High Level Group Term",
          "role": "Variable Qualifier",
          "dataType": "text",
          "length": null,
          "origin": [
            {
              "type": "__PLACEHOLDER__",
              "source": "__PLACEHOLDER__"
            }
          ]
        },
        {
          "OID": "IT.AE.AEHLGTCD",
          "mandatory": false,
          "name": "AEHLGTCD",
          "description": "High Level Group Term Code",
          "role": "Variable Qualifier",
          "dataType": "integer",
          "length": null,
          "origin": [
            {
              "type": "__PLACEHOLDER__",
              "source": "__PLACEHOLDER__"
            }
          ]
        },
        {
          "OID": "IT.AE.AECAT",
          "mandatory": false,
          "name": "AECAT",
          "description": "Category for Adverse Event",
          "role": "Grouping Qualifier",
          "dataType": "text",
          "length": 200,
          "origin": [
            {
              "type": "Assigned",
              "source": "Sponsor"
            }
          ]
        },
        {
          "OID": "IT.AE.AESCAT",
          "mandatory": false,
          "name": "AESCAT",
          "description": "Subcategory for Adverse Event",
          "role": "Grouping Qualifier",
          "dataType": "text",
          "length": 200,
          "origin": [
            {
              "type": "Assigned",
              "source": "Sponsor"
            }
          ]
        },
        {
          "OID": "IT.AE.AEPRESP",
          "mandatory": false,
          "name": "AEPRESP",
          "description": "Pre-Specified Adverse Event",
          "role": "Variable Qualifier",
          "dataType": "text",
          "length": 1,
          "origin": [
            {
              "type": "Assigned",
              "source": "Sponsor"
            }
          ],
          "codeList": "CL.NY"
        },
        {
          "OID": "IT.AE.AEBODSYS",
          "mandatory": false,
          "name": "AEBODSYS",
          "description": "Body System or Organ Class",
          "role": "Record Qualifier",
          "dataType": "text",
          "length": null,
          "origin": [
            {
              "type": "__PLACEHOLDER__",
              "source": "__PLACEHOLDER__"
            }
          ]
        },
        {
          "OID": "IT.AE.AEBDSYCD",
          "mandatory": false,
          "name": "AEBDSYCD",
          "description": "Body System or Organ Class Code",
          "role": "Variable Qualifier",
          "dataType": "integer",
          "length": null,
          "origin": [
            {
              "type": "__PLACEHOLDER__",
              "source": "__PLACEHOLDER__"
            }
          ]
        },
        {
          "OID": "IT.AE.AESOC",
          "mandatory": false,
          "name": "AESOC",
          "description": "Primary System Organ Class",
          "role": "Variable Qualifier",
          "dataType": "text",
          "length": null,
          "origin": [
            {
              "type": "__PLACEHOLDER__",
              "source": "__PLACEHOLDER__"
            }
          ]
        },
        {
          "OID": "IT.AE.AESOCCD",
          "mandatory": false,
          "name": "AESOCCD",
          "description": "Primary System Organ Class Code",
          "role": "Variable Qualifier",
          "dataType": "integer",
          "length": null,
          "origin": [
            {
              "type": "__PLACEHOLDER__",
              "source": "__PLACEHOLDER__"
            }
          ]
        },
        {
          "OID": "IT.AE.AELOC",
          "mandatory": false,
          "name": "AELOC",
          "description": "Location of Event",
          "role": "Record Qualifier",
          "dataType": "text",
          "length": 200,
          "origin": [
            {
              "type": "Collected",
              "source": "Investigator"
            }
          ],
          "codeList": "CL.LOC"
        },
        {
          "OID": "IT.AE.AESEV",
          "mandatory": false,
          "name": "AESEV",
          "description": "Severity/Intensity",
          "role": "Record Qualifier",
          "dataType": "text",
          "length": 20,
          "origin": [
            {
              "type": "Collected",
              "source": "Investigator"
            }
          ],
          "codeList": "CL.AESEV"
        },
        {
          "OID": "IT.AE.AESER",
          "mandatory": false,
          "name": "AESER",
          "description": "Serious Event",
          "role": "Record Qualifier",
          "dataType": "text",
          "length": 1,
          "origin": [
            {
              "type": "Collected",
              "source": "Investigator"
            }
          ],
          "codeList": "CL.NY"
        },
        {
          "OID": "IT.AE.AEACN",
          "mandatory": false,
          "name": "AEACN",
          "description": "Action Taken with Study Treatment",
          "role": "Record Qualifier",
          "dataType": "text",
          "length": 200,
          "origin": [
            {
              "type": "Collected",
              "source": "Investigator"
            }
          ],
          "codeList": "CL.ACN"
        },
        {
          "OID": "IT.AE.AEACNOTH",
          "mandatory": false,
          "name": "AEACNOTH",
          "description": "Other Action Taken",
          "role": "Record Qualifier",
          "dataType": "text",
          "length": 200,
          "origin": [
            {
              "type": "Collected",
              "source": "Investigator"
            }
          ]
        },
        {
          "OID": "IT.AE.AEREL",
          "mandatory": false,
          "name": "AEREL",
          "description": "Causality",
          "role": "Record Qualifier",
          "dataType": "text",
          "length": 200,
          "origin": [
            {
              "type": "Collected",
              "source": "Investigator"
            }
          ]
        },
        {
          "OID": "IT.AE.AERELNST",
          "mandatory": false,
          "name": "AERELNST",
          "description": "Relationship to Non-Study Treatment",
          "role": "Record Qualifier",
          "dataType": "text",
          "length": 200,
          "origin": [
            {
              "type": "Collected",
              "source": "Investigator"
            }
          ]
        },
        {
          "OID": "IT.AE.AEPATT",
          "mandatory": false,
          "name": "AEPATT",
          "description": "Pattern of Adverse Event",
          "role": "Record Qualifier",
          "dataType": "text",
          "length": 200,
          "origin": [
            {
              "type": "Collected",
              "source": "Investigator"
            }
          ]
        },
        {
          "OID": "IT.AE.AEOUT",
          "mandatory": false,
          "name": "AEOUT",
          "description": "Outcome of Adverse Event",
          "role": "Record Qualifier",
          "dataType": "text",
          "length": 200,
          "origin": [
            {
              "type": "Collected",
              "source": "Investigator"
            }
          ],
          "codeList": "CL.OUT"
        },
        {
          "OID": "IT.AE.AESCAN",
          "mandatory": false,
          "name": "AESCAN",
          "description": "Involves Cancer",
          "role": "Record Qualifier",
          "dataType": "text",
          "length": 1,
          "origin": [
            {
              "type": "Collected",
              "source": "Investigator"
            }
          ],
          "codeList": "CL.NY"
        },
        {
          "OID": "IT.AE.AESCONG",
          "mandatory": false,
          "name": "AESCONG",
          "description": "Congenital Anomaly or Birth Defect",
          "role": "Record Qualifier",
          "dataType": "text",
          "length": 1,
          "origin": [
            {
              "type": "Collected",
              "source": "Investigator"
            }
          ],
          "codeList": "CL.NY"
        },
        {
          "OID": "IT.AE.AESDISAB",
          "mandatory": false,
          "name": "AESDISAB",
          "description": "Persist or Signif Disability/Incapacity",
          "role": "Record Qualifier",
          "dataType": "text",
          "length": 1,
          "origin": [
            {
              "type": "Collected",
              "source": "Investigator"
            }
          ],
          "codeList": "CL.NY"
        },
        {
          "OID": "IT.AE.AESDTH",
          "mandatory": false,
          "name": "AESDTH",
          "description": "Results in Death",
          "role": "Record Qualifier",
          "dataType": "text",
          "length": 1,
          "origin": [
            {
              "type": "Collected",
              "source": "Investigator"
            }
          ],
          "codeList": "CL.NY"
        },
        {
          "OID": "IT.AE.AESHOSP",
          "mandatory": false,
          "name": "AESHOSP",
          "description": "Requires or Prolongs Hospitalization",
          "role": "Record Qualifier",
          "dataType": "text",
          "length": 1,
          "origin": [
            {
              "type": "Collected",
              "source": "Investigator"
            }
          ],
          "codeList": "CL.NY"
        },
        {
          "OID": "IT.AE.AESLIFE",
          "mandatory": false,
          "name": "AESLIFE",
          "description": "Is Life Threatening",
          "role": "Record Qualifier",
          "dataType": "text",
          "length": 1,
          "origin": [
            {
              "type": "Collected",
              "source": "Investigator"
            }
          ],
          "codeList": "CL.NY"
        },
        {
          "OID": "IT.AE.AESOD",
          "mandatory": false,
          "name": "AESOD",
          "description": "Occurred with Overdose",
          "role": "Record Qualifier",
          "dataType": "text",
          "length": 1,
          "origin": [
            {
              "type": "Collected",
              "source": "Investigator"
            }
          ],
          "codeList": "CL.NY"
        },
        {
          "OID": "IT.AE.AESMIE",
          "mandatory": false,
          "name": "AESMIE",
          "description": "Other Medically Important Serious Event",
          "role": "Record Qualifier",
          "dataType": "text",
          "length": 1,
          "origin": [
            {
              "type": "Collected",
              "source": "Investigator"
            }
          ],
          "codeList": "CL.NY"
        },
        {
          "OID": "IT.AE.AECONTRT",
          "mandatory": false,
          "name": "AECONTRT",
          "description": "Concomitant or Additional Trtmnt Given",
          "role": "Record Qualifier",
          "dataType": "text",
          "length": 1,
          "origin": [
            {
              "type": "Collected",
              "source": "Investigator"
            }
          ],
          "codeList": "CL.NY"
        },
        {
          "OID": "IT.AE.AETOXGR",
          "mandatory": false,
          "name": "AETOXGR",
          "description": "Standard Toxicity Grade",
          "role": "Record Qualifier",
          "dataType": "text",
          "length": 1,
          "origin": [
            {
              "type": "Collected",
              "source": "Investigator"
            }
          ]
        },
        {
          "OID": "IT.AE.AESTDTC",
          "mandatory": false,
          "name": "AESTDTC",
          "description": "Start Date/Time of Adverse Event",
          "role": "Timing",
          "dataType": "datetime",
          "origin": [
            {
              "type": "Collected",
              "source": "Investigator"
            }
          ]
        },
        {
          "OID": "IT.AE.AEENDTC",
          "mandatory": false,
          "name": "AEENDTC",
          "description": "End Date/Time of Adverse Event",
          "role": "Timing",
          "dataType": "datetime",
          "origin": [
            {
              "type": "Collected",
              "source": "Investigator"
            }
          ]
        },
        {
          "OID": "IT.AE.AEENRF",
          "mandatory": false,
          "name": "AEENRF",
          "description": "End Relative to Reference Period",
          "role": "Timing",
          "dataType": "text",
          "length": 20,
          "origin": [
            {
              "type": "Assigned",
              "source": "Sponsor"
            }
          ],
          "codeList": "CL.STENRF"
        },
        {
          "OID": "IT.AE.AEENRTPT",
          "mandatory": false,
          "name": "AEENRTPT",
          "description": "End Relative to Reference Time Point",
          "role": "Timing",
          "dataType": "text",
          "length": 20,
          "origin": [
            {
              "type": "Assigned",
              "source": "Sponsor"
            }
          ],
          "codeList": "CL.STENRF"
        },
        {
          "OID": "IT.AE.AEENTPT",
          "mandatory": false,
          "name": "AEENTPT",
          "description": "End Reference Time Point",
          "role": "Timing",
          "dataType": "text",
          "length": 20,
          "origin": [
            {
              "type": "Assigned",
              "source": "Sponsor"
            }
          ]
        }
      ]
    },
    {
      "OID": "IG.TA",
      "name": "TA",
      "description": "Trial Arms",
      "domain": "TA",
      "purpose": "Tabulation",
      "structure": "One record per planned Element per Arm",
      "isReferenceData": true,
      "keySequence": [
        "__PLACEHOLDER__"
      ],
      "standard": "STD.SDTMIG",
      "observationClass": {
        "name": "TRIAL DESIGN"
      },
      "items": [
        {
          "OID": "IT.TA.STUDYID",
          "mandatory": true,
          "name": "STUDYID",
          "description": "Study Identifier",
          "role": "Identifier",
          "dataType": "text",
          "length": null,
          "origin": [
            {
              "type": "__PLACEHOLDER__",
              "source": "__PLACEHOLDER__"
            }
          ]
        },
        {
          "OID": "IT.TA.DOMAIN",
          "mandatory": true,
          "name": "DOMAIN",
          "description": "Domain Abbreviation",
          "role": "Identifier",
          "dataType": "text",
          "length": null,
          "origin": [
            {
              "type": "__PLACEHOLDER__",
              "source": "__PLACEHOLDER__"
            }
          ]
        },
        {
          "OID": "IT.TA.ARMCD",
          "mandatory": true,
          "name": "ARMCD",
          "description": "Planned Arm Code",
          "role": "Topic",
          "dataType": "text",
          "length": null,
          "origin": [
            {
              "type": "__PLACEHOLDER__",
              "source": "__PLACEHOLDER__"
            }
          ],
          "codeList": "CL.ARMCD"
        },
        {
          "OID": "IT.TA.ARM",
          "mandatory": true,
          "name": "ARM",
          "description": "Description of Planned Arm",
          "role": "Synonym Qualifier",
          "dataType": "text",
          "length": null,
          "origin": [
            {
              "type": "__PLACEHOLDER__",
              "source": "__PLACEHOLDER__"
            }
          ],
          "codeList": "CL.ARM"
        },
        {
          "OID": "IT.TA.TAETORD",
          "mandatory": true,
          "name": "TAETORD",
          "description": "Planned Order of Element within Arm",
          "role": "Timing",
          "dataType": "integer",
          "length": null,
          "origin": [
            {
              "type": "__PLACEHOLDER__",
              "source": "__PLACEHOLDER__"
            }
          ]
        },
        {
          "OID": "IT.TA.ETCD",
          "mandatory": true,
          "name": "ETCD",
          "description": "Element Code",
          "role": "Record Qualifier",
          "dataType": "text",
          "length": null,
          "origin": [
            {
              "type": "__PLACEHOLDER__",
              "source": "__PLACEHOLDER__"
            }
          ],
          "codeList": "CL.ETCD"
        },
        {
          "OID": "IT.TA.ELEMENT",
          "mandatory": false,
          "name": "ELEMENT",
          "description": "Description of Element",
          "role": "Synonym Qualifier",
          "dataType": "text",
          "length": null,
          "origin": [
            {
              "type": "__PLACEHOLDER__",
              "source": "__PLACEHOLDER__"
            }
          ],
          "codeList": "CL.ELEMENT"
        },
        {
          "OID": "IT.TA.TABRANCH",
          "mandatory": false,
          "name": "TABRANCH",
          "description": "Branch",
          "role": "Rule",
          "dataType": "text",
          "length": null,
          "origin": [
            {
              "type": "__PLACEHOLDER__",
              "source": "__PLACEHOLDER__"
            }
          ]
        },
        {
          "OID": "IT.TA.TATRANS",
          "mandatory": false,
          "name": "TATRANS",
          "description": "Transition Rule",
          "role": "Rule",
          "dataType": "text",
          "length": null,
          "origin": [
            {
              "type": "__PLACEHOLDER__",
              "source": "__PLACEHOLDER__"
            }
          ]
        },
        {
          "OID": "IT.TA.EPOCH",
          "mandatory": true,
          "name": "EPOCH",
          "description": "Epoch",
          "role": "Timing",
          "dataType": "text",
          "length": null,
          "origin": [
            {
              "type": "__PLACEHOLDER__",
              "source": "__PLACEHOLDER__"
            }
          ],
          "codeList": "CL.EPOCH"
        }
      ]
    },
    {
      "OID": "IG.TE",
      "name": "TE",
      "description": "Trial Elements",
      "domain": "TE",
      "purpose": "Tabulation",
      "structure": "One record per planned Element",
      "isReferenceData": true,
      "keySequence": [
        "__PLACEHOLDER__"
      ],
      "standard": "STD.SDTMIG",
      "observationClass": {
        "name": "TRIAL DESIGN"
      },
      "items": [
        {
          "OID": "IT.TE.STUDYID",
          "mandatory": true,
          "name": "STUDYID",
          "description": "Study Identifier",
          "role": "Identifier",
          "dataType": "text",
          "length": null,
          "origin": [
            {
              "type": "__PLACEHOLDER__",
              "source": "__PLACEHOLDER__"
            }
          ]
        },
        {
          "OID": "IT.TE.DOMAIN",
          "mandatory": true,
          "name": "DOMAIN",
          "description": "Domain Abbreviation",
          "role": "Identifier",
          "dataType": "text",
          "length": null,
          "origin": [
            {
              "type": "__PLACEHOLDER__",
              "source": "__PLACEHOLDER__"
            }
          ]
        },
        {
          "OID": "IT.TE.ETCD",
          "mandatory": true,
          "name": "ETCD",
          "description": "Element Code",
          "role": "Topic",
          "dataType": "text",
          "length": null,
          "origin": [
            {
              "type": "__PLACEHOLDER__",
              "source": "__PLACEHOLDER__"
            }
          ],
          "codeList": "CL.ETCD"
        },
        {
          "OID": "IT.TE.ELEMENT",
          "mandatory": true,
          "name": "ELEMENT",
          "description": "Description of Element",
          "role": "Synonym Qualifier",
          "dataType": "text",
          "length": null,
          "origin": [
            {
              "type": "__PLACEHOLDER__",
              "source": "__PLACEHOLDER__"
            }
          ],
          "codeList": "CL.ELEMENT"
        },
        {
          "OID": "IT.TE.TESTRL",
          "mandatory": true,
          "name": "TESTRL",
          "description": "Rule for Start of Element",
          "role": "Rule",
          "dataType": "text",
          "length": null,
          "origin": [
            {
              "type": "__PLACEHOLDER__",
              "source": "__PLACEHOLDER__"
            }
          ]
        }
      ]
    },
    {
      "OID": "IG.SV",
      "name": "SV",
      "description": "Subject Visits",
      "domain": "SV",
      "purpose": "Tabulation",
      "structure": "One record per actual or planned visit per subject",
      "isReferenceData": false,
      "keySequence": [
        "__PLACEHOLDER__"
      ],
      "standard": "STD.SDTMIG",
      "observationClass": {
        "name": "SPECIAL-PURPOSE"
      },
      "items": [
        {
          "OID": "IT.SV.STUDYID",
          "mandatory": true,
          "name": "STUDYID",
          "description": "Study Identifier",
          "role": "Identifier",
          "dataType": "text",
          "length": null,
          "origin": [
            {
              "type": "__PLACEHOLDER__",
              "source": "__PLACEHOLDER__"
            }
          ]
        },
        {
          "OID": "IT.SV.DOMAIN",
          "mandatory": true,
          "name": "DOMAIN",
          "description": "Domain Abbreviation",
          "role": "Identifier",
          "dataType": "text",
          "length": null,
          "origin": [
            {
              "type": "__PLACEHOLDER__",
              "source": "__PLACEHOLDER__"
            }
          ]
        },
        {
          "OID": "IT.SV.USUBJID",
          "mandatory": true,
          "name": "USUBJID",
          "description": "Unique Subject Identifier",
          "role": "Identifier",
          "dataType": "text",
          "length": null,
          "origin": [
            {
              "type": "__PLACEHOLDER__",
              "source": "__PLACEHOLDER__"
            }
          ]
        },
        {
          "OID": "IT.SV.VISITNUM",
          "mandatory": true,
          "name": "VISITNUM",
          "description": "Visit Number",
          "role": "Topic",
          "dataType": "integer",
          "length": null,
          "origin": [
            {
              "type": "__PLACEHOLDER__",
              "source": "__PLACEHOLDER__"
            }
          ]
        },
        {
          "OID": "IT.SV.VISIT",
          "mandatory": false,
          "name": "VISIT",
          "description": "Visit Name",
          "role": "Synonym Qualifier",
          "dataType": "text",
          "length": null,
          "origin": [
            {
              "type": "__PLACEHOLDER__",
              "source": "__PLACEHOLDER__"
            }
          ]
        },
        {
          "OID": "IT.SV.SVPRESP",
          "mandatory": false,
          "name": "SVPRESP",
          "description": "Pre-specified",
          "role": "Variable Qualifier",
          "dataType": "text",
          "length": null,
          "origin": [
            {
              "type": "__PLACEHOLDER__",
              "source": "__PLACEHOLDER__"
            }
          ],
          "codeList": "CL.NY"
        },
        {
          "OID": "IT.SV.SVOCCUR",
          "mandatory": false,
          "name": "SVOCCUR",
          "description": "Occurrence",
          "role": "Record Qualifier",
          "dataType": "text",
          "length": null,
          "origin": [
            {
              "type": "__PLACEHOLDER__",
              "source": "__PLACEHOLDER__"
            }
          ],
          "codeList": "CL.NY"
        },
        {
          "OID": "IT.SV.SVCNTMOD",
          "mandatory": false,
          "name": "SVCNTMOD",
          "description": "Contact Mode",
          "role": "Record Qualifier",
          "dataType": "text",
          "length": null,
          "origin": [
            {
              "type": "__PLACEHOLDER__",
              "source": "__PLACEHOLDER__"
            }
          ],
          "codeList": "CL.CNTMODE"
        },
        {
          "OID": "IT.SV.SVSTDTC",
          "mandatory": false,
          "name": "SVSTDTC",
          "description": "Start Date/Time of Observation",
          "role": "Timing",
          "dataType": "datetime",
          "origin": [
            {
              "type": "__PLACEHOLDER__",
              "source": "__PLACEHOLDER__"
            }
          ]
        },
        {
          "OID": "IT.SV.SVENDTC",
          "mandatory": false,
          "name": "SVENDTC",
          "description": "End Date/Time of Observation",
          "role": "Timing",
          "dataType": "datetime",
          "origin": [
            {
              "type": "__PLACEHOLDER__",
              "source": "__PLACEHOLDER__"
            }
          ]
        }
      ]
    },
    {
      "OID": "IG.SE",
      "name": "SE",
      "description": "Subject Elements",
      "domain": "SE",
      "purpose": "Tabulation",
      "structure": "One record per actual Element per subject",
      "isReferenceData": false,
      "keySequence": [
        "__PLACEHOLDER__"
      ],
      "standard": "STD.SDTMIG",
      "observationClass": {
        "name": "SPECIAL-PURPOSE"
      },
      "items": [
        {
          "OID": "IT.SE.STUDYID",
          "mandatory": true,
          "name": "STUDYID",
          "description": "Study Identifier",
          "role": "Identifier",
          "dataType": "text",
          "length": null,
          "origin": [
            {
              "type": "__PLACEHOLDER__",
              "source": "__PLACEHOLDER__"
            }
          ]
        },
        {
          "OID": "IT.SE.DOMAIN",
          "mandatory": true,
          "name": "DOMAIN",
          "description": "Domain Abbreviation",
          "role": "Identifier",
          "dataType": "text",
          "length": null,
          "origin": [
            {
              "type": "__PLACEHOLDER__",
              "source": "__PLACEHOLDER__"
            }
          ]
        },
        {
          "OID": "IT.SE.USUBJID",
          "mandatory": true,
          "name": "USUBJID",
          "description": "Unique Subject Identifier",
          "role": "Identifier",
          "dataType": "text",
          "length": null,
          "origin": [
            {
              "type": "__PLACEHOLDER__",
              "source": "__PLACEHOLDER__"
            }
          ]
        },
        {
          "OID": "IT.SE.SESEQ",
          "mandatory": true,
          "name": "SESEQ",
          "description": "Sequence Number",
          "role": "Identifier",
          "dataType": "integer",
          "length": null,
          "origin": [
            {
              "type": "__PLACEHOLDER__",
              "source": "__PLACEHOLDER__"
            }
          ]
        },
        {
          "OID": "IT.SE.ETCD",
          "mandatory": true,
          "name": "ETCD",
          "description": "Element Code",
          "role": "Topic",
          "dataType": "text",
          "length": null,
          "origin": [
            {
              "type": "__PLACEHOLDER__",
              "source": "__PLACEHOLDER__"
            }
          ],
          "codeList": "CL.ETCD"
        },
        {
          "OID": "IT.SE.ELEMENT",
          "mandatory": false,
          "name": "ELEMENT",
          "description": "Description of Element",
          "role": "Synonym Qualifier",
          "dataType": "text",
          "length": null,
          "origin": [
            {
              "type": "__PLACEHOLDER__",
              "source": "__PLACEHOLDER__"
            }
          ],
          "codeList": "CL.ELEMENT"
        },
        {
          "OID": "IT.SE.EPOCH",
          "mandatory": false,
          "name": "EPOCH",
          "description": "Epoch",
          "role": "Timing",
          "dataType": "text",
          "length": null,
          "origin": [
            {
              "type": "__PLACEHOLDER__",
              "source": "__PLACEHOLDER__"
            }
          ],
          "codeList": "CL.EPOCH"
        },
        {
          "OID": "IT.SE.SESTDTC",
          "mandatory": true,
          "name": "SESTDTC",
          "description": "Start Date/Time of Element",
          "role": "Timing",
          "dataType": "datetime",
          "origin": [
            {
              "type": "__PLACEHOLDER__",
              "source": "__PLACEHOLDER__"
            }
          ]
        },
        {
          "OID": "IT.SE.SEENDTC",
          "mandatory": false,
          "name": "SEENDTC",
          "description": "End Date/Time of Element",
          "role": "Timing",
          "dataType": "datetime",
          "origin": [
            {
              "type": "__PLACEHOLDER__",
              "source": "__PLACEHOLDER__"
            }
          ]
        }
      ]
    }
  ],
  "conditions": [
    {
      "OID": "COND.DS.DSCAT.49a2057e",
      "rangeChecks": [
        {
          "comparator": "EQ",
          "checkValues": [
            "PROTOCOL MILESTONE"
          ],
          "item": "IT.DS.DSCAT",
          "softHard": "Soft"
        }
      ]
    },
    {
      "OID": "COND.RS.RSTESTCD.056ddcad",
      "rangeChecks": [
        {
          "comparator": "EQ",
          "checkValues": [
            "ECOG101"
          ],
          "item": "IT.RS.RSTESTCD",
          "softHard": "Soft"
        }
      ]
    },
    {
      "OID": "COND.RS.RSCAT.c4cf5069",
      "rangeChecks": [
        {
          "comparator": "EQ",
          "checkValues": [
            "ECOG"
          ],
          "item": "IT.RS.RSCAT",
          "softHard": "Soft"
        }
      ]
    },
    {
      "OID": "COND.RS.RSTESTCD.ea9d2bfc",
      "rangeChecks": [
        {
          "comparator": "EQ",
          "checkValues": [
            "TRGRESP"
          ],
          "item": "IT.RS.RSTESTCD",
          "softHard": "Soft"
        }
      ]
    },
    {
      "OID": "COND.RS.RSCAT.fa5bdcc8",
      "rangeChecks": [
        {
          "comparator": "EQ",
          "checkValues": [
            "RECIST 1.1"
          ],
          "item": "IT.RS.RSCAT",
          "softHard": "Soft"
        }
      ]
    },
    {
      "OID": "COND.RS.RSEVAL.64c917c3",
      "rangeChecks": [
        {
          "comparator": "IN",
          "checkValues": [
            "INVESTIGATOR",
            "INDEPENDENT ASSESSOR"
          ],
          "item": "IT.RS.RSEVAL",
          "softHard": "Soft"
        }
      ]
    },
    {
      "OID": "COND.RS.RSEVALID.22069945",
      "rangeChecks": [
        {
          "comparator": "IN",
          "checkValues": [
            "RADIOLOGIST 1",
            "RADIOLOGIST 2",
            "RADIOLOGIST 3"
          ],
          "item": "IT.RS.RSEVALID",
          "softHard": "Soft"
        }
      ]
    },
    {
      "OID": "COND.RS.RSTESTCD.8472db17",
      "rangeChecks": [
        {
          "comparator": "EQ",
          "checkValues": [
            "NTRGRESP"
          ],
          "item": "IT.RS.RSTESTCD",
          "softHard": "Soft"
        }
      ]
    },
    {
      "OID": "COND.RS.RSTESTCD.36ebb604",
      "rangeChecks": [
        {
          "comparator": "EQ",
          "checkValues": [
            "OVRLRESP"
          ],
          "item": "IT.RS.RSTESTCD",
          "softHard": "Soft"
        }
      ]
    },
    {
      "OID": "COND.VS.VSTESTCD.6f8a5002",
      "rangeChecks": [
        {
          "comparator": "EQ",
          "checkValues": [
            "SYSBP"
          ],
          "item": "IT.VS.VSTESTCD",
          "softHard": "Soft"
        }
      ]
    },
    {
      "OID": "COND.VS.VSPOS.24ef7406",
      "rangeChecks": [
        {
          "comparator": "IN",
          "checkValues": [
            "PRONE",
            "SEMI-RECUMBENT",
            "SITTING",
            "STANDING",
            "SUPINE"
          ],
          "item": "IT.VS.VSPOS",
          "softHard": "Soft"
        }
      ]
    },
    {
      "OID": "COND.VS.VSLOC.7c8b8031",
      "rangeChecks": [
        {
          "comparator": "IN",
          "checkValues": [
            "BRACHIAL ARTERY",
            "CAROTID ARTERY",
            "DORSALIS PEDIS ARTERY",
            "FEMORAL ARTERY",
            "FINGER",
            "RADIAL ARTERY"
          ],
          "item": "IT.VS.VSLOC",
          "softHard": "Soft"
        }
      ]
    },
    {
      "OID": "COND.VS.VSLAT.934ef850",
      "rangeChecks": [
        {
          "comparator": "IN",
          "checkValues": [
            "LEFT",
            "RIGHT"
          ],
          "item": "IT.VS.VSLAT",
          "softHard": "Soft"
        }
      ]
    },
    {
      "OID": "COND.VS.VSTESTCD.04e7c99e",
      "rangeChecks": [
        {
          "comparator": "EQ",
          "checkValues": [
            "DIABP"
          ],
          "item": "IT.VS.VSTESTCD",
          "softHard": "Soft"
        }
      ]
    },
    {
      "OID": "COND.VS.VSTESTCD.34f13e1b",
      "rangeChecks": [
        {
          "comparator": "EQ",
          "checkValues": [
            "HR"
          ],
          "item": "IT.VS.VSTESTCD",
          "softHard": "Soft"
        }
      ]
    },
    {
      "OID": "COND.VS.VSLOC.9b0f4929",
      "rangeChecks": [
        {
          "comparator": "IN",
          "checkValues": [
            "BRACHIAL ARTERY",
            "CAROTID ARTERY",
            "CEREBRAL ARTERY",
            "DORSALIS PEDIS ARTERY",
            "FEMORAL ARTERY",
            "RADIAL ARTERY"
          ],
          "item": "IT.VS.VSLOC",
          "softHard": "Soft"
        }
      ]
    },
    {
      "OID": "COND.VS.VSTESTCD.3cd24c45",
      "rangeChecks": [
        {
          "comparator": "EQ",
          "checkValues": [
            "TEMP"
          ],
          "item": "IT.VS.VSTESTCD",
          "softHard": "Soft"
        }
      ]
    },
    {
      "OID": "COND.VS.VSLOC.e14ab3ef",
      "rangeChecks": [
        {
          "comparator": "IN",
          "checkValues": [
            "AXILLA",
            "EAR",
            "FOREHEAD",
            "ORAL CAVITY",
            "RECTUM"
          ],
          "item": "IT.VS.VSLOC",
          "softHard": "Soft"
        }
      ]
    },
    {
      "OID": "COND.VS.VSTESTCD.3065ea60",
      "rangeChecks": [
        {
          "comparator": "EQ",
          "checkValues": [
            "WEIGHT"
          ],
          "item": "IT.VS.VSTESTCD",
          "softHard": "Soft"
        }
      ]
    },
    {
      "OID": "COND.LB.LBTESTCD.2cf3f505",
      "rangeChecks": [
        {
          "comparator": "EQ",
          "checkValues": [
            "ALT"
          ],
          "item": "IT.LB.LBTESTCD",
          "softHard": "Soft"
        }
      ]
    },
    {
      "OID": "COND.LB.LBSPEC.2a0ba9ed",
      "rangeChecks": [
        {
          "comparator": "EQ",
          "checkValues": [
            "SERUM OR PLASMA"
          ],
          "item": "IT.LB.LBSPEC",
          "softHard": "Soft"
        }
      ]
    },
    {
      "OID": "COND.LB.LBTESTCD.ee16e022",
      "rangeChecks": [
        {
          "comparator": "EQ",
          "checkValues": [
            "AST"
          ],
          "item": "IT.LB.LBTESTCD",
          "softHard": "Soft"
        }
      ]
    },
    {
      "OID": "COND.LB.LBTESTCD.fb28452f",
      "rangeChecks": [
        {
          "comparator": "EQ",
          "checkValues": [
            "BILI"
          ],
          "item": "IT.LB.LBTESTCD",
          "softHard": "Soft"
        }
      ]
    },
    {
      "OID": "COND.LB.LBTESTCD.09d56ffc",
      "rangeChecks": [
        {
          "comparator": "EQ",
          "checkValues": [
            "CREAT"
          ],
          "item": "IT.LB.LBTESTCD",
          "softHard": "Soft"
        }
      ]
    },
    {
      "OID": "COND.LB.LBTESTCD.65d4f752",
      "rangeChecks": [
        {
          "comparator": "EQ",
          "checkValues": [
            "ALB"
          ],
          "item": "IT.LB.LBTESTCD",
          "softHard": "Soft"
        }
      ]
    },
    {
      "OID": "COND.LB.LBTESTCD.fe7cc25e",
      "rangeChecks": [
        {
          "comparator": "EQ",
          "checkValues": [
            "PT"
          ],
          "item": "IT.LB.LBTESTCD",
          "softHard": "Soft"
        }
      ]
    },
    {
      "OID": "COND.LB.LBSPEC.f6f6df0c",
      "rangeChecks": [
        {
          "comparator": "EQ",
          "checkValues": [
            "BLOOD"
          ],
          "item": "IT.LB.LBSPEC",
          "softHard": "Soft"
        }
      ]
    },
    {
      "OID": "COND.LB.LBTESTCD.314d756e",
      "rangeChecks": [
        {
          "comparator": "EQ",
          "checkValues": [
            "INR"
          ],
          "item": "IT.LB.LBTESTCD",
          "softHard": "Soft"
        }
      ]
    },
    {
      "OID": "COND.LB.LBTESTCD.8583e729",
      "rangeChecks": [
        {
          "comparator": "EQ",
          "checkValues": [
            "APTT"
          ],
          "item": "IT.LB.LBTESTCD",
          "softHard": "Soft"
        }
      ]
    },
    {
      "OID": "COND.LB.LBTESTCD.5f3309c8",
      "rangeChecks": [
        {
          "comparator": "EQ",
          "checkValues": [
            "GLUC"
          ],
          "item": "IT.LB.LBTESTCD",
          "softHard": "Soft"
        }
      ]
    },
    {
      "OID": "COND.LB.LBTESTCD.68042ad4",
      "rangeChecks": [
        {
          "comparator": "EQ",
          "checkValues": [
            "TRIG"
          ],
          "item": "IT.LB.LBTESTCD",
          "softHard": "Soft"
        }
      ]
    },
    {
      "OID": "COND.LB.LBTESTCD.546f62a6",
      "rangeChecks": [
        {
          "comparator": "EQ",
          "checkValues": [
            "CHOL"
          ],
          "item": "IT.LB.LBTESTCD",
          "softHard": "Soft"
        }
      ]
    },
    {
      "OID": "COND.LB.LBTESTCD.a8a4b8a5",
      "rangeChecks": [
        {
          "comparator": "EQ",
          "checkValues": [
            "HDL"
          ],
          "item": "IT.LB.LBTESTCD",
          "softHard": "Soft"
        }
      ]
    },
    {
      "OID": "COND.LB.LBTESTCD.f4c5610f",
      "rangeChecks": [
        {
          "comparator": "EQ",
          "checkValues": [
            "LDL"
          ],
          "item": "IT.LB.LBTESTCD",
          "softHard": "Soft"
        }
      ]
    },
    {
      "OID": "COND.LB.LBTESTCD.d093221c",
      "rangeChecks": [
        {
          "comparator": "EQ",
          "checkValues": [
            "WBC"
          ],
          "item": "IT.LB.LBTESTCD",
          "softHard": "Soft"
        }
      ]
    },
    {
      "OID": "COND.LB.LBTESTCD.f0b51e31",
      "rangeChecks": [
        {
          "comparator": "EQ",
          "checkValues": [
            "RBC"
          ],
          "item": "IT.LB.LBTESTCD",
          "softHard": "Soft"
        }
      ]
    },
    {
      "OID": "COND.LB.LBTESTCD.e319c1c9",
      "rangeChecks": [
        {
          "comparator": "EQ",
          "checkValues": [
            "PLAT"
          ],
          "item": "IT.LB.LBTESTCD",
          "softHard": "Soft"
        }
      ]
    },
    {
      "OID": "COND.LB.LBTESTCD.5e7b0134",
      "rangeChecks": [
        {
          "comparator": "EQ",
          "checkValues": [
            "K"
          ],
          "item": "IT.LB.LBTESTCD",
          "softHard": "Soft"
        }
      ]
    },
    {
      "OID": "COND.LB.LBTESTCD.1f6a1d0f",
      "rangeChecks": [
        {
          "comparator": "EQ",
          "checkValues": [
            "SODIUM"
          ],
          "item": "IT.LB.LBTESTCD",
          "softHard": "Soft"
        }
      ]
    },
    {
      "OID": "COND.LB.LBTESTCD.4bda7613",
      "rangeChecks": [
        {
          "comparator": "EQ",
          "checkValues": [
            "CL"
          ],
          "item": "IT.LB.LBTESTCD",
          "softHard": "Soft"
        }
      ]
    },
    {
      "OID": "COND.LB.LBTESTCD.37a62add",
      "rangeChecks": [
        {
          "comparator": "EQ",
          "checkValues": [
            "CO2"
          ],
          "item": "IT.LB.LBTESTCD",
          "softHard": "Soft"
        }
      ]
    },
    {
      "OID": "COND.LB.LBTESTCD.9bb90c0f",
      "rangeChecks": [
        {
          "comparator": "EQ",
          "checkValues": [
            "CA"
          ],
          "item": "IT.LB.LBTESTCD",
          "softHard": "Soft"
        }
      ]
    },
    {
      "OID": "COND.LB.LBTESTCD.c95065ae",
      "rangeChecks": [
        {
          "comparator": "EQ",
          "checkValues": [
            "UREAN"
          ],
          "item": "IT.LB.LBTESTCD",
          "softHard": "Soft"
        }
      ]
    },
    {
      "OID": "COND.LB.LBTESTCD.3705806a",
      "rangeChecks": [
        {
          "comparator": "EQ",
          "checkValues": [
            "PROT"
          ],
          "item": "IT.LB.LBTESTCD",
          "softHard": "Soft"
        }
      ]
    },
    {
      "OID": "COND.LB.LBTESTCD.b2d661b6",
      "rangeChecks": [
        {
          "comparator": "EQ",
          "checkValues": [
            "ALP"
          ],
          "item": "IT.LB.LBTESTCD",
          "softHard": "Soft"
        }
      ]
    },
    {
      "OID": "COND.LB.LBTESTCD.4787c4c4",
