{
  "OID": "MDV.360i CDISC PILOT - LZZT",
  "name": "MDV.360i CDISC PILOT - LZZT",
  "description": "Data Definitions for 360i CDISC PILOT - LZZT",
  "fileOID": "ODM.DEFINE-360I.360i CDISC PILOT - LZZT",
  "creationDateTime": "2026-04-15T16:24:04.358741+00:00",
  "odmVersion": "1.3.2",
  "fileType": "Snapshot",
  "originator": "Define-360i Processor",
  "context": "Other",
  "defineVersion": "2.1.0",
  "studyOID": "",
  "studyName": "360i CDISC PILOT - LZZT",
  "studyDescription": "Safety and Efficacy of the Xanomeline Transdermal Therapeutic System (TTS) in Patients with Mild to Moderate Alzheimer's Disease",
  "protocolName": "360i LZZT Xanomeline (LY246708)",
  "itemGroups": [
    {
      "OID": "IG.SC",
      "name": "SC",
      "description": "Subject Characteristics",
      "structure": "One record per vital sign measurement per visit per subject",
      "purpose": "Tabulation",
      "standard": "STD.1",
      "items": [
        "IT.SC.STUDYID",
        "IT.SC.DOMAIN",
        "IT.SC.USUBJID",
        "IT.SC.SCSEQ",
        "IT.SC.SCTESTCD",
        "IT.SC.SCTEST",
        "IT.SC.SCCAT",
        "IT.SC.SCORRES",
        "IT.SC.SCORRESU",
        "IT.SC.SCSTRESC",
        "IT.SC.SCSTRESN",
        "IT.SC.SCSTRESU",
        "IT.SC.SCDTC",
        "IT.SC.SCDY"
      ],
      "keySequence": [
        "IT.SC.STUDYID",
        "IT.SC.USUBJID"
      ]
    },
    {
      "OID": "IG.LB",
      "name": "LB",
      "description": "Laboratory Test Findings",
      "structure": "One record per vital sign measurement per visit per subject",
      "purpose": "Tabulation",
      "standard": "STD.1",
      "items": [
        "IT.LB.STUDYID",
        "IT.LB.DOMAIN",
        "IT.LB.USUBJID",
        "IT.LB.LBSEQ",
        "IT.LB.LBTESTCD",
        "IT.LB.LBTEST",
        "IT.LB.LBCAT",
        "IT.LB.LBORRES",
        "IT.LB.LBORRESU",
        "IT.LB.LBORNRLO",
        "IT.LB.LBORNRHI",
        "IT.LB.LBSTRESC",
        "IT.LB.LBSTRESN",
        "IT.LB.LBSTRESU",
        "IT.LB.LBSTNRLO",
        "IT.LB.LBSTNRHI",
        "IT.LB.LBNRIND",
        "IT.LB.LBBLFL",
        "IT.LB.VISITNUM",
        "IT.LB.VISIT",
        "IT.LB.VISITDY",
        "IT.LB.LBDTC",
        "IT.LB.LBDY"
      ],
      "keySequence": [
        "IT.LB.STUDYID",
        "IT.LB.USUBJID"
      ]
    },
    {
      "OID": "IG.AE",
      "name": "AE",
      "description": "Adverse Events",
      "structure": "One record per vital sign measurement per visit per subject",
      "purpose": "Tabulation",
      "standard": "STD.1",
      "items": [
        "IT.AE.STUDYID",
        "IT.AE.DOMAIN",
        "IT.AE.USUBJID",
        "IT.AE.AESEQ",
        "IT.AE.AESPID",
        "IT.AE.AETERM",
        "IT.AE.AELLT",
        "IT.AE.AELLTCD",
        "IT.AE.AEDECOD",
        "IT.AE.AEPTCD",
        "IT.AE.AEHLT",
        "IT.AE.AEHLTCD",
        "IT.AE.AEHLGT",
        "IT.AE.AEHLGTCD",
        "IT.AE.AEBODSYS",
        "IT.AE.AEBDSYCD",
        "IT.AE.AESOC",
        "IT.AE.AESOCCD",
        "IT.AE.AESEV",
        "IT.AE.AESER",
        "IT.AE.AEACN",
        "IT.AE.AEREL",
        "IT.AE.AEOUT",
        "IT.AE.AESCAN",
        "IT.AE.AESCONG",
        "IT.AE.AESDISAB",
        "IT.AE.AESDTH",
        "IT.AE.AESHOSP",
        "IT.AE.AESLIFE",
        "IT.AE.AESOD",
        "IT.AE.AEDTC",
        "IT.AE.AESTDTC",
        "IT.AE.AEENDTC",
        "IT.AE.AESTDY",
        "IT.AE.AEENDY"
      ],
      "keySequence": [
        "IT.AE.STUDYID",
        "IT.AE.USUBJID"
      ]
    },
    {
      "OID": "IG.QS",
      "name": "QS",
      "description": "Questionnaires",
      "structure": "One record per vital sign measurement per visit per subject",
      "purpose": "Tabulation",
      "standard": "STD.1",
      "items": [
        "IT.QS.STUDYID",
        "IT.QS.DOMAIN",
        "IT.QS.USUBJID",
        "IT.QS.QSSEQ",
        "IT.QS.QSTESTCD",
        "IT.QS.QSTEST",
        "IT.QS.QSCAT",
        "IT.QS.QSSCAT",
        "IT.QS.QSORRES",
        "IT.QS.QSORRESU",
        "IT.QS.QSSTRESC",
        "IT.QS.QSSTRESN",
        "IT.QS.QSSTRESU",
        "IT.QS.QSBLFL",
        "IT.QS.QSDRVFL",
        "IT.QS.VISITNUM",
        "IT.QS.VISIT",
        "IT.QS.VISITDY",
        "IT.QS.QSDTC",
        "IT.QS.QSDY"
      ],
      "keySequence": [
        "IT.QS.STUDYID",
        "IT.QS.USUBJID"
      ]
    },
    {
      "OID": "IG.DM",
      "name": "DM",
      "description": "Demographics",
      "structure": "One record per vital sign measurement per visit per subject",
      "purpose": "Tabulation",
      "standard": "STD.1",
      "items": [
        "IT.DM.STUDYID",
        "IT.DM.SITEID",
        "IT.DM.DOMAIN",
        "IT.DM.USUBJID",
        "IT.DM.SUBJID",
        "IT.DM.RFSTDTC",
        "IT.DM.RFENDTC",
        "IT.DM.RFXSTDTC",
        "IT.DM.RFXENDTC",
        "IT.DM.RFICDTC",
        "IT.DM.RFPENDTC",
        "IT.DM.DTHDTC",
        "IT.DM.DTHFL",
        "IT.DM.AGE",
        "IT.DM.AGEU",
        "IT.DM.SEX",
        "IT.DM.RACE",
        "IT.DM.ETHNIC",
        "IT.DM.COUNTRY",
        "IT.DM.ARM",
        "IT.DM.ARMCD",
        "IT.DM.ACTARM",
        "IT.DM.ACTARMCD",
        "IT.DM.DMDTC",
        "IT.DM.DMDY"
      ],
      "keySequence": [
        "IT.DM.STUDYID",
        "IT.DM.USUBJID"
      ]
    },
    {
      "OID": "IG.CM",
      "name": "CM",
      "description": "Concomitant Medications",
      "structure": "One record per vital sign measurement per visit per subject",
      "purpose": "Tabulation",
      "standard": "STD.1",
      "items": [
        "IT.CM.STUDYID",
        "IT.CM.DOMAIN",
        "IT.CM.USUBJID",
        "IT.CM.CMSEQ",
        "IT.CM.CMSPID",
        "IT.CM.CMTRT",
        "IT.CM.CMDECOD",
        "IT.CM.CMINDC",
        "IT.CM.CMCLAS",
        "IT.CM.CMDOSE",
        "IT.CM.CMDOSU",
        "IT.CM.CMDOSFRQ",
        "IT.CM.CMROUTE",
        "IT.CM.VISITNUM",
        "IT.CM.VISIT",
        "IT.CM.VISITDY",
        "IT.CM.CMDTC",
        "IT.CM.CMSTDTC",
        "IT.CM.CMENDTC",
        "IT.CM.CMSTDY",
        "IT.CM.CMENDY"
      ],
      "keySequence": [
        "IT.CM.STUDYID",
        "IT.CM.USUBJID"
      ]
    },
    {
      "OID": "IG.SUPPDS",
      "name": "SUPPDS",
      "description": "Supplemental Qualifiers for DS",
      "structure": "One record per vital sign measurement per visit per subject",
      "purpose": "Tabulation",
      "standard": "STD.1",
      "items": [
        "IT.SUPPDS.STUDYID",
        "IT.SUPPDS.RDOMAIN",
        "IT.SUPPDS.USUBJID",
        "IT.SUPPDS.IDVAR",
        "IT.SUPPDS.IDVARVAL",
        "IT.SUPPDS.QNAM",
        "IT.SUPPDS.QLABEL",
        "IT.SUPPDS.QVAL",
        "IT.SUPPDS.QORIG",
        "IT.SUPPDS.QEVAL"
      ],
      "keySequence": [
        "IT.SUPPDS.STUDYID",
        "IT.SUPPDS.USUBJID"
      ]
    },
    {
      "OID": "IG.EX",
      "name": "EX",
      "description": "Exposure",
      "structure": "One record per vital sign measurement per visit per subject",
      "purpose": "Tabulation",
      "standard": "STD.1",
      "items": [
        "IT.EX.STUDYID",
        "IT.EX.DOMAIN",
        "IT.EX.USUBJID",
        "IT.EX.EXSEQ",
        "IT.EX.EXTRT",
        "IT.EX.EXDOSE",
        "IT.EX.EXDOSU",
        "IT.EX.EXDOSFRM",
        "IT.EX.EXDOSFRQ",
        "IT.EX.EXROUTE",
        "IT.EX.VISITNUM",
        "IT.EX.VISIT",
        "IT.EX.VISITDY",
        "IT.EX.EXSTDTC",
        "IT.EX.EXENDTC",
        "IT.EX.EXSTDY",
        "IT.EX.EXENDY"
      ],
      "keySequence": [
        "IT.EX.STUDYID",
        "IT.EX.USUBJID"
      ]
    },
    {
      "OID": "IG.VS",
      "name": "VS",
      "description": "Vital Signs",
      "structure": "One record per vital sign measurement per visit per subject",
      "purpose": "Tabulation",
      "standard": "STD.1",
      "items": [
        "IT.VS.STUDYID",
        "IT.VS.DOMAIN",
        "IT.VS.USUBJID",
        "IT.VS.VSSEQ",
        "IT.VS.VSTESTCD",
        "IT.VS.VSTEST",
        "IT.VS.VSPOS",
        "IT.VS.VSORRES",
        "IT.VS.VSORRESU",
        "IT.VS.VSSTRESC",
        "IT.VS.VSSTRESN",
        "IT.VS.VSSTRESU",
        "IT.VS.VSSTAT",
        "IT.VS.VSLOC",
        "IT.VS.VSBLFL",
        "IT.VS.VISITNUM",
        "IT.VS.VISIT",
        "IT.VS.VISITDY",
        "IT.VS.VSDTC",
        "IT.VS.VSDY",
        "IT.VS.VSTPT",
        "IT.VS.VSTPTNUM",
        "IT.VS.VSELTM",
        "IT.VS.VSTPTREF"
      ],
      "keySequence": [
        "IT.VS.STUDYID",
        "IT.VS.USUBJID"
      ]
    },
    {
      "OID": "IG.MH",
      "name": "MH",
      "description": "Medical History",
      "structure": "One record per vital sign measurement per visit per subject",
      "purpose": "Tabulation",
      "standard": "STD.1",
      "items": [
        "IT.MH.STUDYID",
        "IT.MH.DOMAIN",
        "IT.MH.USUBJID",
        "IT.MH.MHSEQ",
        "IT.MH.MHSPID",
        "IT.MH.MHTERM",
        "IT.MH.MHLLT",
        "IT.MH.MHDECOD",
        "IT.MH.MHHLT",
        "IT.MH.MHHLGT",
        "IT.MH.MHCAT",
        "IT.MH.MHBODSYS",
        "IT.MH.MHSEV",
        "IT.MH.VISITNUM",
        "IT.MH.VISIT",
        "IT.MH.VISITDY",
        "IT.MH.MHDTC",
        "IT.MH.MHSTDTC",
        "IT.MH.MHDY"
      ],
      "keySequence": [
        "IT.MH.STUDYID",
        "IT.MH.USUBJID"
      ]
    },
    {
      "OID": "IG.DS",
      "name": "DS",
      "description": "Disposition",
      "structure": "One record per vital sign measurement per visit per subject",
      "purpose": "Tabulation",
      "standard": "STD.1",
      "items": [
        "IT.DS.STUDYID",
        "IT.DS.DOMAIN",
        "IT.DS.USUBJID",
        "IT.DS.DSSEQ",
        "IT.DS.DSSPID",
        "IT.DS.DSTERM",
        "IT.DS.DSDECOD",
        "IT.DS.DSCAT",
        "IT.DS.VISITNUM",
        "IT.DS.VISIT",
        "IT.DS.DSDTC",
        "IT.DS.DSSTDTC",
        "IT.DS.DSSTDY"
      ],
      "keySequence": [
        "IT.DS.STUDYID",
        "IT.DS.USUBJID"
      ]
    }
  ],
  "conditions": [],
  "whereClauses": [],
  "codeLists": [],
  "methods": [],
  "standards": [
    {
      "OID": "STD.1",
      "name": "SDTMIG",
      "type": "IG",
      "version": "3.4",
      "status": "Final"
    },
    {
      "OID": "STD.2",
      "name": "CDISC/NCI",
      "type": "CT",
      "version": "2024-09-27",
      "status": "Final"
    }
  ],
  "annotatedCRFs": [],
  "concepts": [],
  "conceptProperties": [],
  "items": [],
  "comments": []
}