{
  "OID": "MDV.LZZT - NEW.Version1.Design1",
  "name": "MDV LZZT - NEW",
  "description": "Data Definitions for LZZT - NEW",
  "fileOID": "ODM.DEFINE-JSON.LZZT - NEW.Version1.Design1",
  "creationDateTime": "2026-06-17T15:09:38.032843+00:00",
  "odmVersion": "1.3.2",
  "fileType": "Snapshot",
  "originator": "Define-JSON Processor",
  "context": "Other",
  "defineVersion": "2.1.0",
  "studyOID": "ODM.LZZT - NEW.Version1.Design1",
  "studyName": "LZZT - NEW",
  "studyDescription": "Safety and Efficacy of the Xanomeline Transdermal Therapeutic System (TTS) in Patients with Mild to Moderate Alzheimer's Disease",
  "protocolName": "LZZT - NEW",
  "itemGroups": [
    {
      "OID": "IG.DS",
      "name": "DS",
      "description": "Disposition",
      "domain": "DS",
      "purpose": "Tabulation",
      "structure": "One record per disposition status or protocol milestone per subject",
      "isReferenceData": false,
      "keySequence": [
        "__PLACEHOLDER__"
      ],
      "standard": "STD.SDTMIG",
      "observationClass": {
        "name": "EVENTS"
      },
      "items": [
        {
          "OID": "IT.DS.STUDYID",
          "mandatory": true,
          "name": "STUDYID",
          "description": "Study Identifier",
          "role": "Identifier",
          "dataType": "text",
          "length": null,
          "origin": {
            "type": "__PLACEHOLDER__",
            "source": "__PLACEHOLDER__"
          }
        },
        {
          "OID": "IT.DS.DOMAIN",
          "mandatory": true,
          "name": "DOMAIN",
          "description": "Domain Abbreviation",
          "role": "Identifier",
          "dataType": "text",
          "length": null,
          "origin": {
            "type": "__PLACEHOLDER__",
            "source": "__PLACEHOLDER__"
          }
        },
        {
          "OID": "IT.DS.USUBJID",
          "mandatory": true,
          "name": "USUBJID",
          "description": "Unique Subject Identifier",
          "role": "Identifier",
          "dataType": "text",
          "length": null,
          "origin": {
            "type": "__PLACEHOLDER__",
            "source": "__PLACEHOLDER__"
          }
        },
        {
          "OID": "IT.DS.DSSEQ",
          "mandatory": true,
          "name": "DSSEQ",
          "description": "Sequence Number",
          "role": "Identifier",
          "dataType": "integer",
          "length": null,
          "origin": {
            "type": "__PLACEHOLDER__",
            "source": "__PLACEHOLDER__"
          }
        },
        {
          "OID": "IT.DS.DSTERM",
          "mandatory": true,
          "name": "DSTERM",
          "description": "Reported Term for the Disposition Event",
          "role": "Topic",
          "dataType": "text",
          "length": 200,
          "origin": {
            "type": "Collected",
            "source": "Investigator"
          }
        },
        {
          "OID": "IT.DS.DSDECOD",
          "mandatory": true,
          "name": "DSDECOD",
          "description": "Standardized Disposition Term",
          "role": "Synonym Qualifier",
          "dataType": "text",
          "length": 200,
          "origin": {
            "type": "Assigned",
            "source": "Sponsor"
          },
          "codeList": "CL.NCOMPLT"
        },
        {
          "OID": "IT.DS.DSCAT",
          "mandatory": false,
          "name": "DSCAT",
          "description": "Category for Disposition Event",
          "role": "Grouping Qualifier",
          "dataType": "text",
          "length": 200,
          "origin": {
            "type": "Assigned",
            "source": "Sponsor"
          },
          "codeList": "CL.DSCAT"
        },
        {
          "OID": "IT.DS.DSSCAT",
          "mandatory": false,
          "name": "DSSCAT",
          "description": "Subcategory for Disposition Event",
          "role": "Grouping Qualifier",
          "dataType": "text",
          "length": 200,
          "origin": {
            "type": "Assigned",
            "source": "Sponsor"
          },
          "codeList": "CL.DSSCAT"
        },
        {
          "OID": "IT.DS.DSSTDTC",
          "mandatory": false,
          "name": "DSSTDTC",
          "description": "Start Date/Time of Disposition Event",
          "role": "Timing",
          "dataType": "datetime",
          "origin": {
            "type": "Collected",
            "source": "Investigator"
          }
        },
        {
          "OID": "IT.DS.DSSTDY",
          "mandatory": false,
          "name": "DSSTDY",
          "description": "Study Day of Start of Disposition Event",
          "role": "Timing",
          "dataType": "integer",
          "length": null,
          "origin": {
            "type": "__PLACEHOLDER__",
            "source": "__PLACEHOLDER__"
          }
        }
      ]
    },
    {
      "OID": "IG.DM",
      "name": "DM",
      "description": "Demographics",
      "domain": "DM",
      "purpose": "Tabulation",
      "structure": "One record per subject",
      "isReferenceData": false,
      "keySequence": [
        "__PLACEHOLDER__"
      ],
      "standard": "STD.SDTMIG",
      "observationClass": {
        "name": "SPECIAL-PURPOSE"
      },
      "items": [
        {
          "OID": "IT.DM.STUDYID",
          "mandatory": true,
          "name": "STUDYID",
          "description": "Study Identifier",
          "role": "Identifier",
          "dataType": "text",
          "length": null,
          "origin": {
            "type": "__PLACEHOLDER__",
            "source": "__PLACEHOLDER__"
          }
        },
        {
          "OID": "IT.DM.DOMAIN",
          "mandatory": true,
          "name": "DOMAIN",
          "description": "Domain Abbreviation",
          "role": "Identifier",
          "dataType": "text",
          "length": null,
          "origin": {
            "type": "__PLACEHOLDER__",
            "source": "__PLACEHOLDER__"
          }
        },
        {
          "OID": "IT.DM.USUBJID",
          "mandatory": true,
          "name": "USUBJID",
          "description": "Unique Subject Identifier",
          "role": "Identifier",
          "dataType": "text",
          "length": null,
          "origin": {
            "type": "__PLACEHOLDER__",
            "source": "__PLACEHOLDER__"
          }
        },
        {
          "OID": "IT.DM.SUBJID",
          "mandatory": true,
          "name": "SUBJID",
          "description": "Subject Identifier for the Study",
          "role": "Topic",
          "dataType": "text",
          "length": null,
          "origin": {
            "type": "__PLACEHOLDER__",
            "source": "__PLACEHOLDER__"
          }
        },
        {
          "OID": "IT.DM.RFSTDTC",
          "mandatory": false,
          "name": "RFSTDTC",
          "description": "Subject Reference Start Date/Time",
          "role": "Record Qualifier",
          "dataType": "datetime",
          "origin": {
            "type": "__PLACEHOLDER__",
            "source": "__PLACEHOLDER__"
          }
        },
        {
          "OID": "IT.DM.RFENDTC",
          "mandatory": false,
          "name": "RFENDTC",
          "description": "Subject Reference End Date/Time",
          "role": "Record Qualifier",
          "dataType": "datetime",
          "origin": {
            "type": "__PLACEHOLDER__",
            "source": "__PLACEHOLDER__"
          }
        },
        {
          "OID": "IT.DM.RFXSTDTC",
          "mandatory": false,
          "name": "RFXSTDTC",
          "description": "Date/Time of First Study Treatment",
          "role": "Record Qualifier",
          "dataType": "datetime",
          "origin": {
            "type": "__PLACEHOLDER__",
            "source": "__PLACEHOLDER__"
          }
        },
        {
          "OID": "IT.DM.RFXENDTC",
          "mandatory": false,
          "name": "RFXENDTC",
          "description": "Date/Time of Last Study Treatment",
          "role": "Record Qualifier",
          "dataType": "datetime",
          "origin": {
            "type": "__PLACEHOLDER__",
            "source": "__PLACEHOLDER__"
          }
        },
        {
          "OID": "IT.DM.RFICDTC",
          "mandatory": false,
          "name": "RFICDTC",
          "description": "Date/Time of Informed Consent",
          "role": "Record Qualifier",
          "dataType": "datetime",
          "origin": {
            "type": "__PLACEHOLDER__",
            "source": "__PLACEHOLDER__"
          }
        },
        {
          "OID": "IT.DM.RFPENDTC",
          "mandatory": false,
          "name": "RFPENDTC",
          "description": "Date/Time of End of Participation",
          "role": "Record Qualifier",
          "dataType": "datetime",
          "origin": {
            "type": "__PLACEHOLDER__",
            "source": "__PLACEHOLDER__"
          }
        },
        {
          "OID": "IT.DM.DTHDTC",
          "mandatory": false,
          "name": "DTHDTC",
          "description": "Date/Time of Death",
          "role": "Record Qualifier",
          "dataType": "datetime",
          "origin": {
            "type": "__PLACEHOLDER__",
            "source": "__PLACEHOLDER__"
          }
        },
        {
          "OID": "IT.DM.DTHFL",
          "mandatory": false,
          "name": "DTHFL",
          "description": "Subject Death Flag",
          "role": "Record Qualifier",
          "dataType": "text",
          "length": null,
          "origin": {
            "type": "__PLACEHOLDER__",
            "source": "__PLACEHOLDER__"
          },
          "codeList": "CL.NY"
        },
        {
          "OID": "IT.DM.SITEID",
          "mandatory": true,
          "name": "SITEID",
          "description": "Study Site Identifier",
          "role": "Record Qualifier",
          "dataType": "text",
          "length": null,
          "origin": {
            "type": "__PLACEHOLDER__",
            "source": "__PLACEHOLDER__"
          }
        },
        {
          "OID": "IT.DM.AGE",
          "mandatory": false,
          "name": "AGE",
          "description": "Age",
          "role": "Record Qualifier",
          "dataType": "float",
          "length": 6,
          "displayFormat": "3.2",
          "significantDigits": 2,
          "origin": {
            "type": "Collected",
            "source": "Investigator"
          }
        },
        {
          "OID": "IT.DM.AGEU",
          "mandatory": false,
          "name": "AGEU",
          "description": "Age Units",
          "role": "Variable Qualifier",
          "dataType": "text",
          "length": 20,
          "origin": {
            "type": "Collected",
            "source": "Investigator"
          },
          "codeList": "CL.AGEU"
        },
        {
          "OID": "IT.DM.SEX",
          "mandatory": true,
          "name": "SEX",
          "description": "Sex",
          "role": "Record Qualifier",
          "dataType": "text",
          "length": 100,
          "origin": {
            "type": "Collected",
            "source": "Investigator"
          },
          "codeList": "CL.SEX"
        },
        {
          "OID": "IT.DM.RACE",
          "mandatory": false,
          "name": "RACE",
          "description": "Race",
          "role": "Record Qualifier",
          "dataType": "text",
          "length": 100,
          "origin": {
            "type": "Collected",
            "source": "Investigator"
          },
          "codeList": "CL.RACE"
        },
        {
          "OID": "IT.DM.ETHNIC",
          "mandatory": false,
          "name": "ETHNIC",
          "description": "Ethnicity",
          "role": "Record Qualifier",
          "dataType": "text",
          "length": 100,
          "origin": {
            "type": "Collected",
            "source": "Investigator"
          },
          "codeList": "CL.ETHNIC"
        },
        {
          "OID": "IT.DM.ARMCD",
          "mandatory": false,
          "name": "ARMCD",
          "description": "Planned Arm Code",
          "role": "Record Qualifier",
          "dataType": "text",
          "length": null,
          "origin": {
            "type": "__PLACEHOLDER__",
            "source": "__PLACEHOLDER__"
          }
        },
        {
          "OID": "IT.DM.ARM",
          "mandatory": false,
          "name": "ARM",
          "description": "Description of Planned Arm",
          "role": "Synonym Qualifier",
          "dataType": "text",
          "length": null,
          "origin": {
            "type": "__PLACEHOLDER__",
            "source": "__PLACEHOLDER__"
          }
        },
        {
          "OID": "IT.DM.ACTARMCD",
          "mandatory": false,
          "name": "ACTARMCD",
          "description": "Actual Arm Code",
          "role": "Record Qualifier",
          "dataType": "text",
          "length": null,
          "origin": {
            "type": "__PLACEHOLDER__",
            "source": "__PLACEHOLDER__"
          }
        },
        {
          "OID": "IT.DM.ACTARM",
          "mandatory": false,
          "name": "ACTARM",
          "description": "Description of Actual Arm",
          "role": "Synonym Qualifier",
          "dataType": "text",
          "length": null,
          "origin": {
            "type": "__PLACEHOLDER__",
            "source": "__PLACEHOLDER__"
          }
        },
        {
          "OID": "IT.DM.ARMNRS",
          "mandatory": false,
          "name": "ARMNRS",
          "description": "Reason Arm and/or Actual Arm is Null",
          "role": "Record Qualifier",
          "dataType": "text",
          "length": null,
          "origin": {
            "type": "__PLACEHOLDER__",
            "source": "__PLACEHOLDER__"
          },
          "codeList": "CL.ARMNULRS"
        },
        {
          "OID": "IT.DM.ACTARMUD",
          "mandatory": false,
          "name": "ACTARMUD",
          "description": "Description of Unplanned Actual Arm",
          "role": "Record Qualifier",
          "dataType": "text",
          "length": null,
          "origin": {
            "type": "__PLACEHOLDER__",
            "source": "__PLACEHOLDER__"
          }
        },
        {
          "OID": "IT.DM.COUNTRY",
          "mandatory": true,
          "name": "COUNTRY",
          "description": "Country",
          "role": "Record Qualifier",
          "dataType": "text",
          "length": null,
          "origin": {
            "type": "__PLACEHOLDER__",
            "source": "__PLACEHOLDER__"
          }
        },
        {
          "OID": "IT.DM.DMDTC",
          "mandatory": false,
          "name": "DMDTC",
          "description": "Date/Time of Collection",
          "role": "Timing",
          "dataType": "datetime",
          "origin": {
            "type": "__PLACEHOLDER__",
            "source": "__PLACEHOLDER__"
          }
        }
      ]
    },
    {
      "OID": "IG.SC",
      "name": "SC",
      "description": "Subject Characteristics",
      "domain": "SC",
      "purpose": "Tabulation",
      "structure": "One record per characteristic per visit per subject.",
      "isReferenceData": false,
      "keySequence": [
        "__PLACEHOLDER__"
      ],
      "standard": "STD.SDTMIG",
      "observationClass": {
        "name": "FINDINGS"
      },
      "items": [
        {
          "OID": "IT.SC.STUDYID",
          "mandatory": true,
          "name": "STUDYID",
          "description": "Study Identifier",
          "role": "Identifier",
          "dataType": "text",
          "length": null,
          "origin": {
            "type": "__PLACEHOLDER__",
            "source": "__PLACEHOLDER__"
          }
        },
        {
          "OID": "IT.SC.DOMAIN",
          "mandatory": true,
          "name": "DOMAIN",
          "description": "Domain Abbreviation",
          "role": "Identifier",
          "dataType": "text",
          "length": null,
          "origin": {
            "type": "__PLACEHOLDER__",
            "source": "__PLACEHOLDER__"
          }
        },
        {
          "OID": "IT.SC.USUBJID",
          "mandatory": true,
          "name": "USUBJID",
          "description": "Unique Subject Identifier",
          "role": "Identifier",
          "dataType": "text",
          "length": null,
          "origin": {
            "type": "__PLACEHOLDER__",
            "source": "__PLACEHOLDER__"
          }
        },
        {
          "OID": "IT.SC.SCSEQ",
          "mandatory": true,
          "name": "SCSEQ",
          "description": "Sequence Number",
          "role": "Identifier",
          "dataType": "integer",
          "length": null,
          "origin": {
            "type": "__PLACEHOLDER__",
            "source": "__PLACEHOLDER__"
          }
        },
        {
          "OID": "IT.SC.SCTESTCD",
          "mandatory": true,
          "name": "SCTESTCD",
          "description": "Subject Characteristic Short Name",
          "role": "Topic",
          "dataType": "text",
          "length": null,
          "origin": {
            "type": "__PLACEHOLDER__",
            "source": "__PLACEHOLDER__"
          },
          "codeList": "CL.SCTESTCD"
        },
        {
          "OID": "IT.SC.SCTEST",
          "mandatory": true,
          "name": "SCTEST",
          "description": "Subject Characteristic",
          "role": "Synonym Qualifier",
          "dataType": "text",
          "length": null,
          "origin": {
            "type": "__PLACEHOLDER__",
            "source": "__PLACEHOLDER__"
          },
          "codeList": "CL.SCTEST"
        },
        {
          "OID": "IT.SC.SCORRES",
          "mandatory": false,
          "name": "SCORRES",
          "description": "Result or Finding in Original Units",
          "role": "Result Qualifier",
          "dataType": "text",
          "length": 100
        },
        {
          "OID": "IT.SC.SCORRESU",
          "mandatory": false,
          "name": "SCORRESU",
          "description": "Original Units",
          "role": "Variable Qualifier",
          "dataType": "text",
          "length": 5,
          "origin": {
            "type": "__PLACEHOLDER__",
            "source": "__PLACEHOLDER__"
          }
        },
        {
          "OID": "IT.SC.SCSTRESC",
          "mandatory": false,
          "name": "SCSTRESC",
          "description": "Character Result/Finding in Std Format",
          "role": "Result Qualifier",
          "dataType": "text",
          "length": 100,
          "origin": {
            "type": "Derived",
            "source": "Sponsor"
          }
        },
        {
          "OID": "IT.SC.SCSTRESN",
          "mandatory": false,
          "name": "SCSTRESN",
          "description": "Numeric Result/Finding in Standard Units",
          "role": "Result Qualifier",
          "dataType": "text",
          "length": 100,
          "origin": {
            "type": "Derived",
            "source": "Sponsor"
          }
        },
        {
          "OID": "IT.SC.SCSTRESU",
          "mandatory": false,
          "name": "SCSTRESU",
          "description": "Standard Units",
          "role": "Variable Qualifier",
          "dataType": "text",
          "length": 5,
          "origin": {
            "type": "Assigned",
            "source": "Sponsor"
          },
          "codeList": "CL.UNIT"
        },
        {
          "OID": "IT.SC.SCDTC",
          "mandatory": false,
          "name": "SCDTC",
          "description": "Date/Time of Collection",
          "role": "Timing",
          "dataType": "datetime",
          "origin": {
            "type": "__PLACEHOLDER__",
            "source": "__PLACEHOLDER__"
          }
        }
      ],
      "slices": [
        {
          "OID": "VL.SC.SCORRES",
          "name": "VL_SC_SCORRES",
          "type": "ValueList",
          "wasDerivedFrom": "IT.SC.SCORRES",
          "items": [
            {
              "OID": "IT.SC.SCORRES.EDULEVEL",
              "mandatory": false,
              "name": "SCORRES",
              "dataType": "float",
              "length": 4,
              "displayFormat": "3.1",
              "significantDigits": 1,
              "origin": {
                "type": "Collected",
                "source": "Investigator"
              },
              "applicableWhen": [
                "WC.SC.48924878"
              ]
            },
            {
              "OID": "IT.SC.SCORRES.EDUYRNUM",
              "mandatory": false,
              "name": "SCORRES",
              "dataType": "float",
              "length": 4,
              "displayFormat": "3.1",
              "significantDigits": 1,
              "origin": {
                "type": "Collected",
                "source": "Investigator"
              },
              "applicableWhen": [
                "WC.SC.e7173a71"
              ]
            }
          ]
        },
        {
          "OID": "VL.SC.SCORRESU",
          "name": "VL_SC_SCORRESU",
          "type": "ValueList",
          "wasDerivedFrom": "IT.SC.SCORRESU",
          "items": [
            {
              "OID": "IT.SC.SCORRESU.EDUYRNUM",
              "mandatory": false,
              "name": "SCORRESU",
              "dataType": "text",
              "length": null,
              "codeList": "CL.UNIT",
              "applicableWhen": [
                "WC.SC.5fc4562e"
              ]
            }
          ]
        }
      ]
    },
    {
      "OID": "IG.MH",
      "name": "MH",
      "description": "Medical History",
      "domain": "MH",
      "purpose": "Tabulation",
      "structure": "One record per medical history event per subject",
      "isReferenceData": false,
      "keySequence": [
        "__PLACEHOLDER__"
      ],
      "standard": "STD.SDTMIG",
      "observationClass": {
        "name": "EVENTS"
      },
      "items": [
        {
          "OID": "IT.MH.STUDYID",
          "mandatory": true,
          "name": "STUDYID",
          "description": "Study Identifier",
          "role": "Identifier",
          "dataType": "text",
          "length": null,
          "origin": {
            "type": "__PLACEHOLDER__",
            "source": "__PLACEHOLDER__"
          }
        },
        {
          "OID": "IT.MH.DOMAIN",
          "mandatory": true,
          "name": "DOMAIN",
          "description": "Domain Abbreviation",
          "role": "Identifier",
          "dataType": "text",
          "length": null,
          "origin": {
            "type": "__PLACEHOLDER__",
            "source": "__PLACEHOLDER__"
          }
        },
        {
          "OID": "IT.MH.USUBJID",
          "mandatory": true,
          "name": "USUBJID",
          "description": "Unique Subject Identifier",
          "role": "Identifier",
          "dataType": "text",
          "length": null,
          "origin": {
            "type": "__PLACEHOLDER__",
            "source": "__PLACEHOLDER__"
          }
        },
        {
          "OID": "IT.MH.MHSEQ",
          "mandatory": true,
          "name": "MHSEQ",
          "description": "Sequence Number",
          "role": "Identifier",
          "dataType": "integer",
          "length": null,
          "origin": {
            "type": "__PLACEHOLDER__",
            "source": "__PLACEHOLDER__"
          }
        },
        {
          "OID": "IT.MH.MHTERM",
          "mandatory": true,
          "name": "MHTERM",
          "description": "Reported Term for the Medical History",
          "role": "Topic",
          "dataType": "text",
          "length": 200,
          "origin": {
            "type": "Assigned",
            "source": "Sponsor"
          }
        },
        {
          "OID": "IT.MH.MHDECOD",
          "mandatory": false,
          "name": "MHDECOD",
          "description": "Dictionary-Derived Term",
          "role": "Synonym Qualifier",
          "dataType": "text",
          "length": 200,
          "origin": {
            "type": "Assigned",
            "source": "Sponsor"
          }
        },
        {
          "OID": "IT.MH.MHPRESP",
          "mandatory": false,
          "name": "MHPRESP",
          "description": "Medical History Event Pre-Specified",
          "role": "Variable Qualifier",
          "dataType": "text",
          "length": 1,
          "origin": {
            "type": "Assigned",
            "source": "Sponsor"
          },
          "codeList": "CL.NY"
        },
        {
          "OID": "IT.MH.MHOCCUR",
          "mandatory": false,
          "name": "MHOCCUR",
          "description": "Medical History Occurrence",
          "role": "Record Qualifier",
          "dataType": "text",
          "length": 1,
          "origin": {
            "type": "Collected",
            "source": "Investigator"
          },
          "codeList": "CL.NY"
        },
        {
          "OID": "IT.MH.MHENRF",
          "mandatory": false,
          "name": "MHENRF",
          "description": "End Relative to Reference Period",
          "role": "Timing",
          "dataType": "text",
          "length": 20,
          "origin": {
            "type": "Assigned",
            "source": "Sponsor"
          },
          "codeList": "CL.STENRF"
        },
        {
          "OID": "IT.MH.MHENRTPT",
          "mandatory": false,
          "name": "MHENRTPT",
          "description": "End Relative to Reference Time Point",
          "role": "Timing",
          "dataType": "text",
          "length": 20,
          "origin": {
            "type": "Assigned",
            "source": "Sponsor"
          },
          "codeList": "CL.STENRF"
        },
        {
          "OID": "IT.MH.MHENTPT",
          "mandatory": false,
          "name": "MHENTPT",
          "description": "End Reference Time Point",
          "role": "Timing",
          "dataType": "text",
          "length": 20,
          "origin": {
            "type": "Assigned",
            "source": "Sponsor"
          }
        }
      ]
    },
    {
      "OID": "IG.SU",
      "name": "SU",
      "description": "Substance Use",
      "domain": "SU",
      "purpose": "Tabulation",
      "structure": "One record per substance type per reported occurrence per subject",
      "isReferenceData": false,
      "keySequence": [
        "__PLACEHOLDER__"
      ],
      "standard": "STD.SDTMIG",
      "observationClass": {
        "name": "INTERVENTIONS"
      },
      "items": [
        {
          "OID": "IT.SU.STUDYID",
          "mandatory": true,
          "name": "STUDYID",
          "description": "Study Identifier",
          "role": "Identifier",
          "dataType": "text",
          "length": null,
          "origin": {
            "type": "__PLACEHOLDER__",
            "source": "__PLACEHOLDER__"
          }
        },
        {
          "OID": "IT.SU.DOMAIN",
          "mandatory": true,
          "name": "DOMAIN",
          "description": "Domain Abbreviation",
          "role": "Identifier",
          "dataType": "text",
          "length": null,
          "origin": {
            "type": "__PLACEHOLDER__",
            "source": "__PLACEHOLDER__"
          }
        },
        {
          "OID": "IT.SU.USUBJID",
          "mandatory": true,
          "name": "USUBJID",
          "description": "Unique Subject Identifier",
          "role": "Identifier",
          "dataType": "text",
          "length": null,
          "origin": {
            "type": "__PLACEHOLDER__",
            "source": "__PLACEHOLDER__"
          }
        },
        {
          "OID": "IT.SU.SUSEQ",
          "mandatory": true,
          "name": "SUSEQ",
          "description": "Sequence Number",
          "role": "Identifier",
          "dataType": "integer",
          "length": null,
          "origin": {
            "type": "__PLACEHOLDER__",
            "source": "__PLACEHOLDER__"
          }
        },
        {
          "OID": "IT.SU.SUTRT",
          "mandatory": true,
          "name": "SUTRT",
          "description": "Reported Name of Substance",
          "role": "Topic",
          "dataType": "text",
          "length": 200,
          "origin": {
            "type": "Collected",
            "source": "Investigator"
          }
        },
        {
          "OID": "IT.SU.SUCAT",
          "mandatory": false,
          "name": "SUCAT",
          "description": "Category for Substance Use",
          "role": "Grouping Qualifier",
          "dataType": "text",
          "length": 200,
          "origin": {
            "type": "Assigned",
            "source": "Sponsor"
          }
        },
        {
          "OID": "IT.SU.SUSCAT",
          "mandatory": false,
          "name": "SUSCAT",
          "description": "Subcategory for Substance Use",
          "role": "Grouping Qualifier",
          "dataType": "text",
          "length": 200,
          "origin": {
            "type": "Assigned",
            "source": "Sponsor"
          }
        },
        {
          "OID": "IT.SU.SUPRESP",
          "mandatory": false,
          "name": "SUPRESP",
          "description": "SU Pre-Specified",
          "role": "Variable Qualifier",
          "dataType": "text",
          "length": 1,
          "origin": {
            "type": "Assigned",
            "source": "Sponsor"
          },
          "codeList": "CL.NY_Y"
        },
        {
          "OID": "IT.SU.SUOCCUR",
          "mandatory": false,
          "name": "SUOCCUR",
          "description": "SU Occurrence",
          "role": "Record Qualifier",
          "dataType": "text",
          "length": 1,
          "origin": {
            "type": "Collected",
            "source": "Investigator"
          },
          "codeList": "CL.NY_NY"
        },
        {
          "OID": "IT.SU.SUDOSE",
          "mandatory": false,
          "name": "SUDOSE",
          "description": "Substance Use Consumption",
          "role": "Record Qualifier",
          "dataType": "float",
          "length": 12,
          "displayFormat": "12.4",
          "significantDigits": 4,
          "origin": {
            "type": "Collected",
            "source": "Investigator"
          }
        },
        {
          "OID": "IT.SU.SUDOSTXT",
          "mandatory": false,
          "name": "SUDOSTXT",
          "description": "Substance Use Consumption Text",
          "role": "Record Qualifier",
          "dataType": "text",
          "length": 40,
          "origin": {
            "type": "Collected",
            "source": "Investigator"
          }
        },
        {
          "OID": "IT.SU.SUDOSU",
          "mandatory": false,
          "name": "SUDOSU",
          "description": "Consumption Units",
          "role": "Variable Qualifier",
          "dataType": "text",
          "length": 40,
          "origin": {
            "type": "Collected",
            "source": "Investigator"
          },
          "codeList": "CL.UNIT"
        },
        {
          "OID": "IT.SU.SUDOSFRQ",
          "mandatory": false,
          "name": "SUDOSFRQ",
          "description": "Use Frequency Per Interval",
          "role": "Variable Qualifier",
          "dataType": "text",
          "length": 40,
          "origin": {
            "type": "Collected",
            "source": "Investigator"
          },
          "codeList": "CL.FREQ"
        },
        {
          "OID": "IT.SU.SUSTDTC",
          "mandatory": false,
          "name": "SUSTDTC",
          "description": "Start Date/Time of Substance Use",
          "role": "Timing",
          "dataType": "datetime",
          "origin": {
            "type": "Collected",
            "source": "Investigator"
          }
        },
        {
          "OID": "IT.SU.SUENDTC",
          "mandatory": false,
          "name": "SUENDTC",
          "description": "End Date/Time of Substance Use",
          "role": "Timing",
          "dataType": "datetime",
          "origin": {
            "type": "Collected",
            "source": "Investigator"
          }
        },
        {
          "OID": "IT.SU.SUDUR",
          "mandatory": false,
          "name": "SUDUR",
          "description": "Duration of Substance Use",
          "role": "Timing",
          "dataType": "durationDatetime",
          "origin": {
            "type": "Collected",
            "source": "Investigator"
          }
        },
        {
          "OID": "IT.SU.SUSTRF",
          "mandatory": false,
          "name": "SUSTRF",
          "description": "Start Relative to Reference Period",
          "role": "Timing",
          "dataType": "text",
          "length": 20,
          "origin": {
            "type": "Assigned",
            "source": "Sponsor"
          },
          "codeList": "CL.STENRF"
        },
        {
          "OID": "IT.SU.SUENRF",
          "mandatory": false,
          "name": "SUENRF",
          "description": "End Relative to Reference Period",
          "role": "Timing",
          "dataType": "text",
          "length": 20,
          "origin": {
            "type": "Assigned",
            "source": "Sponsor"
          },
          "codeList": "CL.STENRF"
        },
        {
          "OID": "IT.SU.SUSTRTPT",
          "mandatory": false,
          "name": "SUSTRTPT",
          "description": "Start Relative to Reference Time Point",
          "role": "Timing",
          "dataType": "text",
          "length": 20,
          "origin": {
            "type": "Assigned",
            "source": "Sponsor"
          },
          "codeList": "CL.STENRF"
        },
        {
          "OID": "IT.SU.SUSTTPT",
          "mandatory": false,
          "name": "SUSTTPT",
          "description": "Start Reference Time Point",
          "role": "Timing",
          "dataType": "text",
          "length": 20,
          "origin": {
            "type": "Assigned",
            "source": "Sponsor"
          }
        },
        {
          "OID": "IT.SU.SUENRTPT",
          "mandatory": false,
          "name": "SUENRTPT",
          "description": "End Relative to Reference Time Point",
          "role": "Timing",
          "dataType": "text",
          "length": 20,
          "origin": {
            "type": "Assigned",
            "source": "Sponsor"
          },
          "codeList": "CL.STENRF"
        },
        {
          "OID": "IT.SU.SUENTPT",
          "mandatory": false,
          "name": "SUENTPT",
          "description": "End Reference Time Point",
          "role": "Timing",
          "dataType": "text",
          "length": 20,
          "origin": {
            "type": "Assigned",
            "source": "Sponsor"
          }
        }
      ]
    },
    {
      "OID": "IG.PR",
      "name": "PR",
      "description": "Procedures",
      "domain": "PR",
      "purpose": "Tabulation",
      "structure": "One record per recorded procedure per occurrence per subject",
      "isReferenceData": false,
      "keySequence": [
        "__PLACEHOLDER__"
      ],
      "standard": "STD.SDTMIG",
      "observationClass": {
        "name": "INTERVENTIONS"
      },
      "items": [
        {
          "OID": "IT.PR.STUDYID",
          "mandatory": true,
          "name": "STUDYID",
          "description": "Study Identifier",
          "role": "Identifier",
          "dataType": "text",
          "length": null,
          "origin": {
            "type": "__PLACEHOLDER__",
            "source": "__PLACEHOLDER__"
          }
        },
        {
          "OID": "IT.PR.DOMAIN",
          "mandatory": true,
          "name": "DOMAIN",
          "description": "Domain Abbreviation",
          "role": "Identifier",
          "dataType": "text",
          "length": null,
          "origin": {
            "type": "__PLACEHOLDER__",
            "source": "__PLACEHOLDER__"
          }
        },
        {
          "OID": "IT.PR.USUBJID",
          "mandatory": true,
          "name": "USUBJID",
          "description": "Unique Subject Identifier",
          "role": "Identifier",
          "dataType": "text",
          "length": null,
          "origin": {
            "type": "__PLACEHOLDER__",
            "source": "__PLACEHOLDER__"
          }
        },
        {
          "OID": "IT.PR.PRSEQ",
          "mandatory": true,
          "name": "PRSEQ",
          "description": "Sequence Number",
          "role": "Identifier",
          "dataType": "integer",
          "length": null,
          "origin": {
            "type": "__PLACEHOLDER__",
            "source": "__PLACEHOLDER__"
          }
        },
        {
          "OID": "IT.PR.PRTRT",
          "mandatory": true,
          "name": "PRTRT",
          "description": "Reported Name of Procedure",
          "role": "Topic",
          "dataType": "text",
          "length": 200,
          "origin": {
            "type": "Collected",
            "source": "Investigator"
          }
        },
        {
          "OID": "IT.PR.PRDECOD",
          "mandatory": false,
          "name": "PRDECOD",
          "description": "Standardized Procedure Name",
          "role": "Synonym Qualifier",
          "dataType": "text",
          "length": 200,
          "origin": {
            "type": "Assigned",
            "source": "Sponsor"
          },
          "codeList": "CL.PROCEDUR"
        },
        {
          "OID": "IT.PR.PRCAT",
          "mandatory": false,
          "name": "PRCAT",
          "description": "Category",
          "role": "Grouping Qualifier",
          "dataType": "text",
          "length": 200,
          "origin": {
            "type": "Assigned",
            "source": "Sponsor"
          }
        },
        {
          "OID": "IT.PR.PRSCAT",
          "mandatory": false,
          "name": "PRSCAT",
          "description": "Subcategory",
          "role": "Grouping Qualifier",
          "dataType": "text",
          "length": 200,
          "origin": {
            "type": "Assigned",
            "source": "Sponsor"
          }
        },
        {
          "OID": "IT.PR.PRPRESP",
          "mandatory": false,
          "name": "PRPRESP",
          "description": "Pre-specified",
          "role": "Variable Qualifier",
          "dataType": "text",
          "length": 1,
          "origin": {
            "type": "Assigned",
            "source": "Sponsor"
          },
          "codeList": "CL.NY_Y"
        },
        {
          "OID": "IT.PR.PROCCUR",
          "mandatory": false,
          "name": "PROCCUR",
          "description": "Occurrence",
          "role": "Record Qualifier",
          "dataType": "text",
          "length": 1,
          "origin": {
            "type": "Collected",
            "source": "Investigator"
          },
          "codeList": "CL.NY_NY"
        },
        {
          "OID": "IT.PR.PRLOC",
          "mandatory": false,
          "name": "PRLOC",
          "description": "Location of Procedure",
          "role": "Record Qualifier",
          "dataType": "text",
          "length": 200,
          "origin": {
            "type": "Collected",
            "source": "Investigator"
          },
          "codeList": "CL.LOC"
        },
        {
          "OID": "IT.PR.PRSTDTC",
          "mandatory": false,
          "name": "PRSTDTC",
          "description": "Start Date/Time of Procedure",
          "role": "Timing",
          "dataType": "datetime",
          "origin": {
            "type": "Collected",
            "source": "Investigator"
          }
        },
        {
          "OID": "IT.PR.PRENDTC",
          "mandatory": false,
          "name": "PRENDTC",
          "description": "End Date/Time of Procedure",
          "role": "Timing",
          "dataType": "datetime",
          "origin": {
            "type": "Collected",
            "source": "Investigator"
          }
        }
      ]
    },
    {
      "OID": "IG.VS",
      "name": "VS",
      "description": "Vital Signs",
      "domain": "VS",
      "purpose": "Tabulation",
      "structure": "One record per vital sign measurement per time point per visit per subject",
      "isReferenceData": false,
      "keySequence": [
        "__PLACEHOLDER__"
      ],
      "standard": "STD.SDTMIG",
      "observationClass": {
        "name": "FINDINGS"
      },
      "items": [
        {
          "OID": "IT.VS.STUDYID",
          "mandatory": true,
          "name": "STUDYID",
          "description": "Study Identifier",
          "role": "Identifier",
          "dataType": "text",
          "length": null,
          "origin": {
            "type": "__PLACEHOLDER__",
            "source": "__PLACEHOLDER__"
          }
        },
        {
          "OID": "IT.VS.DOMAIN",
          "mandatory": true,
          "name": "DOMAIN",
          "description": "Domain Abbreviation",
          "role": "Identifier",
          "dataType": "text",
          "length": null,
          "origin": {
            "type": "__PLACEHOLDER__",
            "source": "__PLACEHOLDER__"
          }
        },
        {
          "OID": "IT.VS.USUBJID",
          "mandatory": true,
          "name": "USUBJID",
          "description": "Unique Subject Identifier",
          "role": "Identifier",
          "dataType": "text",
          "length": null,
          "origin": {
            "type": "__PLACEHOLDER__",
            "source": "__PLACEHOLDER__"
          }
        },
        {
          "OID": "IT.VS.VSSEQ",
          "mandatory": true,
          "name": "VSSEQ",
          "description": "Sequence Number",
          "role": "Identifier",
          "dataType": "integer",
          "length": null,
          "origin": {
            "type": "__PLACEHOLDER__",
            "source": "__PLACEHOLDER__"
          }
        },
        {
          "OID": "IT.VS.VSTESTCD",
          "mandatory": true,
          "name": "VSTESTCD",
          "description": "Vital Signs Test Short Name",
          "role": "Topic",
          "dataType": "text",
          "length": null,
          "origin": {
            "type": "__PLACEHOLDER__",
            "source": "__PLACEHOLDER__"
          },
          "codeList": "CL.VSTESTCD"
        },
        {
          "OID": "IT.VS.VSTEST",
          "mandatory": true,
          "name": "VSTEST",
          "description": "Vital Signs Test Name",
          "role": "Synonym Qualifier",
          "dataType": "text",
          "length": null,
          "origin": {
            "type": "__PLACEHOLDER__",
            "source": "__PLACEHOLDER__"
          },
          "codeList": "CL.VSTEST"
        },
        {
          "OID": "IT.VS.VSPOS",
          "mandatory": false,
          "name": "VSPOS",
          "description": "Vital Signs Position of Subject",
          "role": "Record Qualifier",
          "dataType": "text",
          "length": null,
          "origin": {
            "type": "__PLACEHOLDER__",
            "source": "__PLACEHOLDER__"
          },
          "codeList": "CL.POSITION"
        },
        {
          "OID": "IT.VS.VSORRES",
          "mandatory": false,
          "name": "VSORRES",
          "description": "Result or Finding in Original Units",
          "role": "Result Qualifier",
          "dataType": "float",
          "length": 8,
          "displayFormat": "8.3",
          "significantDigits": 3
        },
        {
          "OID": "IT.VS.VSORRESU",
          "mandatory": false,
          "name": "VSORRESU",
          "description": "Original Units",
          "role": "Variable Qualifier",
          "dataType": "text",
          "length": 20,
          "origin": {
            "type": "Collected",
            "source": "Investigator"
          }
        },
        {
          "OID": "IT.VS.VSSTRESC",
          "mandatory": false,
          "name": "VSSTRESC",
          "description": "Character Result/Finding in Std Format",
          "role": "Result Qualifier",
          "dataType": "float",
          "length": 8,
          "displayFormat": "8.3",
          "significantDigits": 3,
          "origin": {
            "type": "Derived",
            "source": "Sponsor"
          }
        },
        {
          "OID": "IT.VS.VSSTRESN",
          "mandatory": false,
          "name": "VSSTRESN",
          "description": "Numeric Result/Finding in Standard Units",
          "role": "Result Qualifier",
          "dataType": "float",
          "length": 8,
          "displayFormat": "8.3",
          "significantDigits": 3,
          "origin": {
            "type": "Derived",
            "source": "Sponsor"
          }
        },
        {
          "OID": "IT.VS.VSSTRESU",
          "mandatory": false,
          "name": "VSSTRESU",
          "description": "Standard Units",
          "role": "Variable Qualifier",
          "dataType": "text",
          "length": 20,
          "origin": {
            "type": "Assigned",
            "source": "Sponsor"
          },
          "codeList": "CL.VSRESU"
        },
        {
          "OID": "IT.VS.VSLOC",
          "mandatory": false,
          "name": "VSLOC",
          "description": "Location of Vital Signs Measurement",
          "role": "Record Qualifier",
          "dataType": "text",
          "length": null,
          "origin": {
            "type": "__PLACEHOLDER__",
            "source": "__PLACEHOLDER__"
          },
          "codeList": "CL.LOC"
        },
        {
          "OID": "IT.VS.VSLAT",
          "mandatory": false,
          "name": "VSLAT",
          "description": "Laterality",
          "role": "Result Qualifier",
          "dataType": "text",
          "length": null,
          "origin": {
            "type": "__PLACEHOLDER__",
            "source": "__PLACEHOLDER__"
          },
          "codeList": "CL.LAT"
        },
        {
          "OID": "IT.VS.VSLOBXFL",
          "mandatory": false,
          "name": "VSLOBXFL",
          "description": "Last Observation Before Exposure Flag",
          "role": "Record Qualifier",
          "dataType": "text",
          "length": null,
          "origin": {
            "type": "__PLACEHOLDER__",
            "source": "__PLACEHOLDER__"
          },
          "codeList": "CL.NY"
        },
        {
          "OID": "IT.VS.VISITNUM",
          "mandatory": false,
          "name": "VISITNUM",
          "description": "Visit Number",
          "role": "Timing",
          "dataType": "integer",
          "length": null,
          "origin": {
            "type": "__PLACEHOLDER__",
            "source": "__PLACEHOLDER__"
          }
        },
        {
          "OID": "IT.VS.VSDTC",
          "mandatory": false,
          "name": "VSDTC",
          "description": "Date/Time of Measurements",
          "role": "Timing",
          "dataType": "datetime",
          "origin": {
            "type": "__PLACEHOLDER__",
            "source": "__PLACEHOLDER__"
          }
        }
      ],
      "slices": [
        {
          "OID": "VL.VS.VSORRES",
          "name": "VL_VS_VSORRES",
          "type": "ValueList",
          "wasDerivedFrom": "IT.VS.VSORRES",
          "items": [
            {
              "OID": "IT.VS.VSORRES.TEMP",
              "mandatory": false,
              "name": "VSORRES",
              "dataType": "float",
              "length": 8,
              "displayFormat": "8.3",
              "significantDigits": 3,
              "origin": {
                "type": "Collected",
                "source": "Investigator"
              },
              "applicableWhen": [
                "WC.VS.df8e6ed8"
              ]
            },
            {
              "OID": "IT.VS.VSORRES.WEIGHT",
              "mandatory": false,
              "name": "VSORRES",
              "dataType": "float",
              "length": 8,
              "displayFormat": "8.3",
              "significantDigits": 3,
              "origin": {
                "type": "Collected",
                "source": "Investigator"
              },
              "applicableWhen": [
                "WC.VS.362bc1cf"
              ]
            },
            {
              "OID": "IT.VS.VSORRES.HEIGHT",
              "mandatory": false,
              "name": "VSORRES",
              "dataType": "float",
              "length": 8,
              "displayFormat": "8.3",
              "significantDigits": 3,
              "origin": {
                "type": "Collected",
                "source": "Investigator"
              },
              "applicableWhen": [
                "WC.VS.22da90ca"
              ]
            },
            {
              "OID": "IT.VS.VSORRES.PULSE",
              "mandatory": false,
              "name": "VSORRES",
              "dataType": "integer",
              "length": 3,
              "origin": {
                "type": "Collected",
                "source": "Investigator"
              },
              "applicableWhen": [
                "WC.VS.90269389"
              ]
            },
            {
              "OID": "IT.VS.VSORRES.RESP",
              "mandatory": false,
              "name": "VSORRES",
              "dataType": "integer",
              "length": 3,
              "origin": {
                "type": "Collected",
                "source": "Investigator"
              },
              "applicableWhen": [
                "WC.VS.02e0f161"
              ]
            },
            {
              "OID": "IT.VS.VSORRES.BMI",
              "mandatory": false,
              "name": "VSORRES",
              "dataType": "float",
              "length": 8,
              "displayFormat": "8.3",
              "origin": {
                "type": "Derived",
                "source": "Sponsor"
              },
              "applicableWhen": [
                "WC.VS.ba9d17a7"
              ]
            },
            {
              "OID": "IT.VS.VSORRES.SYSBP",
              "mandatory": false,
              "name": "VSORRES",
              "dataType": "integer",
              "length": 3,
              "origin": {
                "type": "Collected",
                "source": "Investigator"
              },
              "applicableWhen": [
                "WC.VS.037b6848"
              ]
            },
            {
              "OID": "IT.VS.VSORRES.DIABP",
              "mandatory": false,
              "name": "VSORRES",
              "dataType": "integer",
              "length": 3,
              "origin": {
                "type": "Collected",
                "source": "Investigator"
              },
              "applicableWhen": [
                "WC.VS.fe755a11"
              ]
            },
            {
              "OID": "IT.VS.VSORRES.HR",
              "mandatory": false,
              "name": "VSORRES",
              "dataType": "integer",
              "length": 3,
              "origin": {
                "type": "Collected",
                "source": "Investigator"
              },
              "applicableWhen": [
                "WC.VS.324e0cc0"
              ]
            }
          ]
        },
        {
          "OID": "VL.VS.VSORRESU",
          "name": "VL_VS_VSORRESU",
          "type": "ValueList",
          "wasDerivedFrom": "IT.VS.VSORRESU",
          "items": [
            {
              "OID": "IT.VS.VSORRESU.TEMP",
              "mandatory": false,
              "name": "VSORRESU",
              "dataType": "text",
              "length": null,
              "codeList": "CL.VSRESU_TEMP",
              "applicableWhen": [
                "WC.VS.dea56915"
              ]
            },
            {
              "OID": "IT.VS.VSORRESU.WEIGHT",
              "mandatory": false,
              "name": "VSORRESU",
              "dataType": "text",
              "length": null,
              "codeList": "CL.VSRESU_WT",
              "applicableWhen": [
                "WC.VS.ef959fbb"
              ]
            },
            {
              "OID": "IT.VS.VSORRESU.HEIGHT",
              "mandatory": false,
              "name": "VSORRESU",
              "dataType": "text",
              "length": null,
              "codeList": "CL.VSRESU_HT",
              "applicableWhen": [
                "WC.VS.97262f9f"
              ]
            },
            {
              "OID": "IT.VS.VSORRESU.PULSE",
              "mandatory": false,
              "name": "VSORRESU",
              "dataType": "text",
              "length": null,
              "codeList": "CL.VSRESU",
              "applicableWhen": [
                "WC.VS.2fad3005"
              ]
            },
            {
              "OID": "IT.VS.VSORRESU.RESP",
              "mandatory": false,
              "name": "VSORRESU",
              "dataType": "text",
              "length": null,
              "codeList": "CL.VSRESU",
              "applicableWhen": [
                "WC.VS.f296848d"
              ]
            },
            {
              "OID": "IT.VS.VSORRESU.BMI",
              "mandatory": false,
              "name": "VSORRESU",
              "dataType": "text",
              "length": null,
              "codeList": "CL.UNIT_BMI",
              "applicableWhen": [
                "WC.VS.ca4251ba"
              ]
            },
            {
              "OID": "IT.VS.VSORRESU.SYSBP",
              "mandatory": false,
              "name": "VSORRESU",
              "dataType": "text",
              "length": null,
              "codeList": "CL.VSRESU",
              "applicableWhen": [
                "WC.VS.301c7ee3"
              ]
            },
            {
              "OID": "IT.VS.VSORRESU.DIABP",
              "mandatory": false,
              "name": "VSORRESU",
              "dataType": "text",
              "length": null,
              "codeList": "CL.VSRESU",
              "applicableWhen": [
                "WC.VS.714dfc07"
              ]
            },
            {
              "OID": "IT.VS.VSORRESU.HR",
              "mandatory": false,
              "name": "VSORRESU",
              "dataType": "text",
              "length": null,
              "codeList": "CL.VSRESU",
              "applicableWhen": [
                "WC.VS.5a9c1ab0"
              ]
            }
          ]
        }
      ]
    },
    {
      "OID": "IG.EG",
      "name": "EG",
      "description": "ECG Test Results",
      "domain": "EG",
      "purpose": "Tabulation",
      "structure": "One record per ECG observation per replicate per time point or one record per ECG observation per beat per visit per subject",
      "isReferenceData": false,
      "keySequence": [
        "__PLACEHOLDER__"
      ],
      "standard": "STD.SDTMIG",
      "observationClass": {
        "name": "FINDINGS"
      },
      "items": [
        {
          "OID": "IT.EG.STUDYID",
          "mandatory": true,
          "name": "STUDYID",
          "description": "Study Identifier",
          "role": "Identifier",
          "dataType": "text",
          "length": null,
          "origin": {
            "type": "__PLACEHOLDER__",
            "source": "__PLACEHOLDER__"
          }
        },
        {
          "OID": "IT.EG.DOMAIN",
          "mandatory": true,
          "name": "DOMAIN",
          "description": "Domain Abbreviation",
          "role": "Identifier",
          "dataType": "text",
          "length": null,
          "origin": {
            "type": "__PLACEHOLDER__",
            "source": "__PLACEHOLDER__"
          }
        },
        {
          "OID": "IT.EG.USUBJID",
          "mandatory": true,
          "name": "USUBJID",
          "description": "Unique Subject Identifier",
          "role": "Identifier",
          "dataType": "text",
          "length": null,
          "origin": {
            "type": "__PLACEHOLDER__",
            "source": "__PLACEHOLDER__"
          }
        },
        {
          "OID": "IT.EG.EGSEQ",
          "mandatory": true,
          "name": "EGSEQ",
          "description": "Sequence Number",
          "role": "Identifier",
          "dataType": "integer",
          "length": null,
          "origin": {
            "type": "__PLACEHOLDER__",
            "source": "__PLACEHOLDER__"
          }
        },
        {
          "OID": "IT.EG.EGTESTCD",
          "mandatory": true,
          "name": "EGTESTCD",
          "description": "ECG Test or Examination Short Name",
          "role": "Topic",
          "dataType": "text",
          "length": null,
          "origin": {
            "type": "__PLACEHOLDER__",
            "source": "__PLACEHOLDER__"
          },
          "codeList": "CL.EGTESTCD"
        },
        {
          "OID": "IT.EG.EGTEST",
          "mandatory": true,
          "name": "EGTEST",
          "description": "ECG Test or Examination Name",
          "role": "Synonym Qualifier",
          "dataType": "text",
          "length": null,
          "origin": {
            "type": "__PLACEHOLDER__",
            "source": "__PLACEHOLDER__"
          },
          "codeList": "CL.EGTEST"
        },
        {
          "OID": "IT.EG.EGCAT",
          "mandatory": false,
          "name": "EGCAT",
          "description": "Category for ECG",
          "role": "Grouping Qualifier",
          "dataType": "text",
          "length": null,
          "origin": {
            "type": "__PLACEHOLDER__",
            "source": "__PLACEHOLDER__"
          }
        },
        {
          "OID": "IT.EG.EGPOS",
          "mandatory": false,
          "name": "EGPOS",
          "description": "ECG Position of Subject",
          "role": "Record Qualifier",
          "dataType": "text",
          "length": null,
          "origin": {
            "type": "__PLACEHOLDER__",
            "source": "__PLACEHOLDER__"
          },
          "codeList": "CL.POSITION"
        },
        {
          "OID": "IT.EG.EGORRES",
          "mandatory": false,
          "name": "EGORRES",
          "description": "Result or Finding in Original Units",
          "role": "Result Qualifier",
          "dataType": "text",
          "length": 20,
          "origin": {
            "type": "Collected",
            "source": "Vendor"
          }
        },
        {
          "OID": "IT.EG.EGORRESU",
          "mandatory": false,
          "name": "EGORRESU",
          "description": "Original Units",
          "role": "Variable Qualifier",
          "dataType": "text",
          "length": 20,
          "origin": {
            "type": "Collected",
            "source": "Vendor"
          }
        },
        {
          "OID": "IT.EG.EGSTRESC",
          "mandatory": false,
          "name": "EGSTRESC",
          "description": "Character Result/Finding in Std Format",
          "role": "Result Qualifier",
          "dataType": "text",
          "length": 20,
          "origin": {
            "type": "Derived",
            "source": "Vendor"
          },
          "codeList": "CL.EGSTRESC"
        },
        {
          "OID": "IT.EG.EGSTRESN",
          "mandatory": false,
          "name": "EGSTRESN",
          "description": "Numeric Result/Finding in Standard Units",
          "role": "Result Qualifier",
          "dataType": "float",
          "length": 8,
          "displayFormat": "8.3",
          "significantDigits": 3,
          "origin": {
            "type": "Derived",
            "source": "Vendor"
          }
        },
        {
          "OID": "IT.EG.EGSTRESU",
          "mandatory": false,
          "name": "EGSTRESU",
          "description": "Standard Units",
          "role": "Variable Qualifier",
          "dataType": "text",
          "length": 20,
          "origin": {
            "type": "Assigned",
            "source": "Vendor"
          },
          "codeList": "CL.UNIT"
        },
        {
          "OID": "IT.EG.EGMETHOD",
          "mandatory": false,
          "name": "EGMETHOD",
          "description": "Method of Test or Examination",
          "role": "Record Qualifier",
          "dataType": "text",
          "length": null,
          "origin": {
            "type": "__PLACEHOLDER__",
            "source": "__PLACEHOLDER__"
          },
          "codeList": "CL.EGMETHOD"
        },
        {
          "OID": "IT.EG.EGLOBXFL",
          "mandatory": false,
          "name": "EGLOBXFL",
          "description": "Last Observation Before Exposure Flag",
          "role": "Record Qualifier",
          "dataType": "text",
          "length": null,
          "origin": {
            "type": "__PLACEHOLDER__",
            "source": "__PLACEHOLDER__"
          },
          "codeList": "CL.NY"
        },
        {
          "OID": "IT.EG.EGEVAL",
          "mandatory": false,
          "name": "EGEVAL",
          "description": "Evaluator",
          "role": "Record Qualifier",
          "dataType": "text",
          "length": null,
          "origin": {
            "type": "__PLACEHOLDER__",
            "source": "__PLACEHOLDER__"
          },
          "codeList": "CL.EVAL"
        },
        {
          "OID": "IT.EG.EGCLSIG",
          "mandatory": false,
          "name": "EGCLSIG",
          "description": "Clinically Significant, Collected",
          "role": "Record Qualifier",
          "dataType": "text",
          "length": null,
          "origin": {
            "type": "__PLACEHOLDER__",
            "source": "__PLACEHOLDER__"
          },
          "codeList": "CL.NY_NY"
        },
        {
          "OID": "IT.EG.VISITNUM",
          "mandatory": false,
          "name": "VISITNUM",
          "description": "Visit Number",
          "role": "Timing",
          "dataType": "integer",
          "length": null,
          "origin": {
            "type": "__PLACEHOLDER__",
            "source": "__PLACEHOLDER__"
          }
        },
        {
          "OID": "IT.EG.EGDTC",
          "mandatory": false,
          "name": "EGDTC",
          "description": "Date/Time of ECG",
          "role": "Timing",
          "dataType": "datetime",
          "origin": {
            "type": "__PLACEHOLDER__",
            "source": "__PLACEHOLDER__"
          }
        }
      ],
      "slices": [
        {
          "OID": "VL.EG.EGORRES",
          "name": "VL_EG_EGORRES",
          "type": "ValueList",
          "wasDerivedFrom": "IT.EG.EGORRES",
          "items": [
            {
              "OID": "IT.EG.EGORRES.INTP",
              "mandatory": false,
              "name": "EGORRES",
              "dataType": "text",
              "length": 20,
              "codeList": "CL.NORMABNM",
              "applicableWhen": [
                "WC.EG.f60b99cb"
              ]
            },
            {
              "OID": "IT.EG.EGORRES.AVCOND",
              "mandatory": false,
              "name": "EGORRES",
              "dataType": "text",
              "length": 8,
              "displayFormat": "8.3",
              "significantDigits": 3,
              "applicableWhen": [
                "WC.EG.d30401ba"
              ]
            },
            {
              "OID": "IT.EG.EGORRES.AXISVOLT",
              "mandatory": false,
              "name": "EGORRES",
              "dataType": "text",
              "length": 8,
              "displayFormat": "8.3",
              "significantDigits": 3,
              "applicableWhen": [
                "WC.EG.0764363d"
              ]
            },
            {
              "OID": "IT.EG.EGORRES.CHYPTENL",
              "mandatory": false,
              "name": "EGORRES",
              "dataType": "text",
              "length": 8,
              "displayFormat": "8.3",
              "significantDigits": 3,
              "applicableWhen": [
                "WC.EG.c7ca2c0d"
              ]
            },
            {
              "OID": "IT.EG.EGORRES.TECHQUAL",
              "mandatory": false,
              "name": "EGORRES",
              "dataType": "text",
              "length": 200,
              "applicableWhen": [
                "WC.EG.0110957e"
              ]
            },
            {
              "OID": "IT.EG.EGORRES.IVTIACD",
              "mandatory": false,
              "name": "EGORRES",
              "dataType": "text",
              "length": 8,
              "displayFormat": "8.3",
              "significantDigits": 3,
              "applicableWhen": [
                "WC.EG.7a2cbb17"
              ]
            },
            {
              "OID": "IT.EG.EGORRES.PACEMAKR",
              "mandatory": false,
              "name": "EGORRES",
              "dataType": "text",
              "length": 8,
              "displayFormat": "8.3",
              "significantDigits": 3,
              "applicableWhen": [
                "WC.EG.c82f004b"
              ]
            },
            {
              "OID": "IT.EG.EGORRES.RHYNOS",
              "mandatory": false,
              "name": "EGORRES",
              "dataType": "text",
              "length": 8,
              "displayFormat": "8.3",
              "significantDigits": 3,
              "applicableWhen": [
                "WC.EG.aaf51dd5"
              ]
            },
            {
              "OID": "IT.EG.EGORRES.SNRARRY",
              "mandatory": false,
              "name": "EGORRES",
              "dataType": "text",
              "length": 8,
              "displayFormat": "8.3",
              "significantDigits": 3,
              "applicableWhen": [
                "WC.EG.0a478649"
              ]
            },
            {
              "OID": "IT.EG.EGORRES.SPRARRY",
              "mandatory": false,
              "name": "EGORRES",
              "dataType": "text",
              "length": 8,
              "displayFormat": "8.3",
              "significantDigits": 3,
              "applicableWhen": [
                "WC.EG.44c12ce4"
              ]
            },
            {
              "OID": "IT.EG.EGORRES.SPRTARRY",
              "mandatory": false,
              "name": "EGORRES",
              "dataType": "text",
              "length": 8,
              "displayFormat": "8.3",
              "significantDigits": 3,
              "applicableWhen": [
                "WC.EG.7c9fb72d"
              ]
            },
            {
              "OID": "IT.EG.EGORRES.VTARRY",
              "mandatory": false,
              "name": "EGORRES",
              "dataType": "text",
              "length": 8,
              "displayFormat": "8.3",
              "significantDigits": 3,
              "applicableWhen": [
                "WC.EG.3a146a53"
              ]
            },
            {
              "OID": "IT.EG.EGORRES.VTTARRY",
              "mandatory": false,
              "name": "EGORRES",
              "dataType": "text",
              "length": 8,
              "displayFormat": "8.3",
              "significantDigits": 3,
              "applicableWhen": [
                "WC.EG.5571a969"
              ]
            },
            {
              "OID": "IT.EG.EGORRES.PRAG",
              "mandatory": false,
              "name": "EGORRES",
              "dataType": "text",
              "length": 8,
              "displayFormat": "8.3",
              "significantDigits": 3,
              "applicableWhen": [
                "WC.EG.13a9fd00"
              ]
            },
            {
              "OID": "IT.EG.EGORRES.QRSAG",
              "mandatory": false,
              "name": "EGORRES",
              "dataType": "text",
              "length": 8,
              "displayFormat": "8.3",
              "significantDigits": 3,
              "applicableWhen": [
                "WC.EG.72304c3a"
              ]
            },
            {
              "OID": "IT.EG.EGORRES.QTAG",
              "mandatory": false,
              "name": "EGORRES",
              "dataType": "text",
              "length": 8,
              "displayFormat": "8.3",
              "significantDigits": 3,
              "applicableWhen": [
                "WC.EG.6f155b1d"
              ]
            },
            {
              "OID": "IT.EG.EGORRES.QTCBAG",
              "mandatory": false,
              "name": "EGORRES",
              "dataType": "text",
              "length": 8,
              "displayFormat": "8.3",
              "significantDigits": 3,
              "applicableWhen": [
                "WC.EG.dff815c6"
              ]
            },
            {
              "OID": "IT.EG.EGORRES.QTCFAG",
              "mandatory": false,
              "name": "EGORRES",
              "dataType": "text",
              "length": 8,
              "displayFormat": "8.3",
              "significantDigits": 3,
              "applicableWhen": [
                "WC.EG.e967e1e7"
              ]
            },
            {
              "OID": "IT.EG.EGORRES.RRAG",
              "mandatory": false,
              "name": "EGORRES",
              "dataType": "text",
              "length": 8,
              "displayFormat": "8.3",
              "significantDigits": 3,
              "applicableWhen": [
                "WC.EG.64f26102"
              ]
            },
            {
              "OID": "IT.EG.EGORRES.EGHRMN",
              "mandatory": false,
              "name": "EGORRES",
              "dataType": "text",
              "length": 8,
              "displayFormat": "8.3",
              "significantDigits": 3,
              "applicableWhen": [
                "WC.EG.2ecbdce2"
              ]
            },
            {
              "OID": "IT.EG.EGORRES.QRS_AXIS",
              "mandatory": false,
              "name": "EGORRES",
              "dataType": "text",
              "length": 8,
              "displayFormat": "8.3",
              "significantDigits": 3,
              "applicableWhen": [
                "WC.EG.9ce29aa6"
              ]
            }
          ]
        },
        {
          "OID": "VL.EG.EGORRESU",
          "name": "VL_EG_EGORRESU",
          "type": "ValueList",
          "wasDerivedFrom": "IT.EG.EGORRESU",
          "items": [
            {
              "OID": "IT.EG.EGORRESU.PRAG",
              "mandatory": false,
              "name": "EGORRESU",
              "dataType": "text",
              "length": null,
              "codeList": "CL.UNIT",
              "applicableWhen": [
                "WC.EG.cec16291"
              ]
            },
            {
              "OID": "IT.EG.EGORRESU.QRSAG",
              "mandatory": false,
              "name": "EGORRESU",
              "dataType": "text",
              "length": null,
              "codeList": "CL.UNIT",
              "applicableWhen": [
                "WC.EG.5a1ab0f5"
              ]
            },
            {
              "OID": "IT.EG.EGORRESU.QTAG",
              "mandatory": false,
              "name": "EGORRESU",
              "dataType": "text",
              "length": null,
              "codeList": "CL.UNIT",
              "applicableWhen": [
                "WC.EG.ddb86367"
              ]
            },
            {
              "OID": "IT.EG.EGORRESU.QTCBAG",
              "mandatory": false,
              "name": "EGORRESU",
              "dataType": "text",
              "length": null,
              "codeList": "CL.UNIT",
              "applicableWhen": [
                "WC.EG.e847517c"
              ]
            },
            {
              "OID": "IT.EG.EGORRESU.QTCFAG",
              "mandatory": false,
              "name": "EGORRESU",
              "dataType": "text",
              "length": null,
              "codeList": "CL.UNIT",
              "applicableWhen": [
                "WC.EG.7f463007"
              ]
            },
            {
              "OID": "IT.EG.EGORRESU.RRAG",
              "mandatory": false,
              "name": "EGORRESU",
              "dataType": "text",
              "length": null,
              "codeList": "CL.UNIT",
              "applicableWhen": [
                "WC.EG.3d1ba9c3"
              ]
            },
            {
              "OID": "IT.EG.EGORRESU.EGHRMN",
              "mandatory": false,
              "name": "EGORRESU",
              "dataType": "text",
              "length": null,
              "codeList": "CL.UNIT",
              "applicableWhen": [
                "WC.EG.a40eb46d"
              ]
            },
            {
              "OID": "IT.EG.EGORRESU.QRS_AXIS",
              "mandatory": false,
              "name": "EGORRESU",
              "dataType": "text",
              "length": null,
              "codeList": "CL.UNIT",
              "applicableWhen": [
                "WC.EG.02ebb46f"
              ]
            }
          ]
        }
      ]
    },
    {
      "OID": "IG.CM",
      "name": "CM",
      "description": "Concomitant/Prior Medications",
      "domain": "CM",
      "purpose": "Tabulation",
      "structure": "One record per recorded intervention occurrence or constant-dosing interval per subject",
      "isReferenceData": false,
      "keySequence": [
        "__PLACEHOLDER__"
      ],
      "standard": "STD.SDTMIG",
      "observationClass": {
        "name": "INTERVENTIONS"
      },
      "items": [
        {
          "OID": "IT.CM.STUDYID",
          "mandatory": true,
          "name": "STUDYID",
          "description": "Study Identifier",
          "role": "Identifier",
          "dataType": "text",
          "length": null,
          "origin": {
            "type": "__PLACEHOLDER__",
            "source": "__PLACEHOLDER__"
          }
        },
        {
          "OID": "IT.CM.DOMAIN",
          "mandatory": true,
          "name": "DOMAIN",
          "description": "Domain Abbreviation",
          "role": "Identifier",
          "dataType": "text",
          "length": null,
          "origin": {
            "type": "__PLACEHOLDER__",
            "source": "__PLACEHOLDER__"
          }
        },
        {
          "OID": "IT.CM.USUBJID",
          "mandatory": true,
          "name": "USUBJID",
          "description": "Unique Subject Identifier",
          "role": "Identifier",
          "dataType": "text",
          "length": null,
          "origin": {
            "type": "__PLACEHOLDER__",
            "source": "__PLACEHOLDER__"
          }
        },
        {
          "OID": "IT.CM.CMSEQ",
          "mandatory": true,
          "name": "CMSEQ",
          "description": "Sequence Number",
          "role": "Identifier",
          "dataType": "integer",
          "length": null,
          "origin": {
            "type": "__PLACEHOLDER__",
            "source": "__PLACEHOLDER__"
          }
        },
        {
          "OID": "IT.CM.CMTRT",
          "mandatory": true,
          "name": "CMTRT",
          "description": "Reported Name of Drug, Med, or Therapy",
          "role": "Topic",
          "dataType": "text",
          "length": 200,
          "origin": {
            "type": "Collected",
            "source": "Investigator"
          }
        },
        {
          "OID": "IT.CM.CMDECOD",
          "mandatory": false,
          "name": "CMDECOD",
          "description": "Standardized Medication Name",
          "role": "Synonym Qualifier",
          "dataType": "text",
          "length": 200,
          "origin": {
            "type": "Assigned",
            "source": "Sponsor"
          }
        },
        {
          "OID": "IT.CM.CMCAT",
          "mandatory": false,
          "name": "CMCAT",
          "description": "Category for Medication",
          "role": "Grouping Qualifier",
          "dataType": "text",
          "length": 200,
          "origin": {
            "type": "Assigned",
            "source": "Sponsor"
          }
        },
        {
          "OID": "IT.CM.CMSCAT",
          "mandatory": false,
          "name": "CMSCAT",
          "description": "Subcategory for Medication",
          "role": "Grouping Qualifier",
          "dataType": "text",
          "length": 200,
          "origin": {
            "type": "Assigned",
            "source": "Sponsor"
          }
        },
        {
          "OID": "IT.CM.CMPRESP",
          "mandatory": false,
          "name": "CMPRESP",
          "description": "CM Pre-specified",
          "role": "Variable Qualifier",
          "dataType": "text",
          "length": 1,
          "origin": {
            "type": "Assigned",
            "source": "Sponsor"
          },
          "codeList": "CL.NY"
        },
        {
          "OID": "IT.CM.CMOCCUR",
          "mandatory": false,
          "name": "CMOCCUR",
          "description": "CM Occurrence",
          "role": "Record Qualifier",
          "dataType": "text",
          "length": 1,
          "origin": {
            "type": "Collected",
            "source": "Investigator"
          },
          "codeList": "CL.NY"
        },
        {
          "OID": "IT.CM.CMINDC",
          "mandatory": false,
          "name": "CMINDC",
          "description": "Indication",
          "role": "Record Qualifier",
          "dataType": "text",
          "length": 200,
          "origin": {
            "type": "Collected",
            "source": "Investigator"
          }
        },
        {
          "OID": "IT.CM.CMDOSE",
          "mandatory": false,
          "name": "CMDOSE",
          "description": "Dose per Administration",
          "role": "Record Qualifier",
          "dataType": "text",
          "length": 40,
          "origin": {
            "type": "Collected",
            "source": "Investigator"
          }
        },
        {
          "OID": "IT.CM.CMDOSU",
          "mandatory": false,
          "name": "CMDOSU",
          "description": "Dose Units",
          "role": "Variable Qualifier",
          "dataType": "text",
          "length": 40,
          "origin": {
            "type": "Collected",
            "source": "Investigator"
          },
          "codeList": "CL.UNIT"
        },
        {
          "OID": "IT.CM.CMDOSFRM",
          "mandatory": false,
          "name": "CMDOSFRM",
          "description": "Dose Form",
          "role": "Variable Qualifier",
          "dataType": "text",
          "length": 40,
          "origin": {
            "type": "Collected",
            "source": "Investigator"
          },
          "codeList": "CL.FRM"
        },
        {
          "OID": "IT.CM.CMROUTE",
          "mandatory": false,
          "name": "CMROUTE",
          "description": "Route of Administration",
          "role": "Variable Qualifier",
          "dataType": "text",
          "length": 200,
          "origin": {
            "type": "Collected",
            "source": "Investigator"
          },
          "codeList": "CL.ROUTE"
        },
        {
          "OID": "IT.CM.CMSTDTC",
          "mandatory": false,
          "name": "CMSTDTC",
          "description": "Start Date/Time of Medication",
          "role": "Timing",
          "dataType": "datetime",
          "origin": {
            "type": "Collected",
            "source": "Investigator"
          }
        },
        {
          "OID": "IT.CM.CMENDTC",
          "mandatory": false,
          "name": "CMENDTC",
          "description": "End Date/Time of Medication",
          "role": "Timing",
          "dataType": "datetime",
          "origin": {
            "type": "Collected",
            "source": "Investigator"
          }
        }
      ]
    },
    {
      "OID": "IG.LB",
      "name": "LB",
      "description": "Laboratory Test Results",
      "domain": "LB",
      "purpose": "Tabulation",
      "structure": "One record per lab test per time point per visit per subject",
      "isReferenceData": false,
      "keySequence": [
        "__PLACEHOLDER__"
      ],
      "standard": "STD.SDTMIG",
      "observationClass": {
        "name": "FINDINGS"
      },
      "items": [
        {
          "OID": "IT.LB.STUDYID",
          "mandatory": true,
          "name": "STUDYID",
          "description": "Study Identifier",
          "role": "Identifier",
          "dataType": "text",
          "length": null,
          "origin": {
            "type": "__PLACEHOLDER__",
            "source": "__PLACEHOLDER__"
          }
        },
        {
          "OID": "IT.LB.DOMAIN",
          "mandatory": true,
          "name": "DOMAIN",
          "description": "Domain Abbreviation",
          "role": "Identifier",
          "dataType": "text",
          "length": null,
          "origin": {
            "type": "__PLACEHOLDER__",
            "source": "__PLACEHOLDER__"
          }
        },
        {
          "OID": "IT.LB.USUBJID",
          "mandatory": true,
          "name": "USUBJID",
          "description": "Unique Subject Identifier",
          "role": "Identifier",
          "dataType": "text",
          "length": null,
          "origin": {
            "type": "__PLACEHOLDER__",
            "source": "__PLACEHOLDER__"
          }
        },
        {
          "OID": "IT.LB.LBSEQ",
          "mandatory": true,
          "name": "LBSEQ",
          "description": "Sequence Number",
          "role": "Identifier",
          "dataType": "integer",
          "length": null,
          "origin": {
            "type": "__PLACEHOLDER__",
            "source": "__PLACEHOLDER__"
          }
        },
        {
          "OID": "IT.LB.LBTESTCD",
          "mandatory": true,
          "name": "LBTESTCD",
          "description": "Lab Test or Examination Short Name",
          "role": "Topic",
          "dataType": "text",
          "length": null,
          "origin": {
            "type": "__PLACEHOLDER__",
            "source": "__PLACEHOLDER__"
          },
          "codeList": "CL.LBTESTCD"
        },
        {
          "OID": "IT.LB.LBTEST",
          "mandatory": true,
          "name": "LBTEST",
          "description": "Lab Test or Examination Name",
          "role": "Synonym Qualifier",
          "dataType": "text",
          "length": null,
          "origin": {
            "type": "__PLACEHOLDER__",
            "source": "__PLACEHOLDER__"
          },
          "codeList": "CL.LBTEST"
        },
        {
          "OID": "IT.LB.LBCAT",
          "mandatory": false,
          "name": "LBCAT",
          "description": "Category for Lab Test",
          "role": "Grouping Qualifier",
          "dataType": "text",
          "length": null,
          "origin": {
            "type": "__PLACEHOLDER__",
            "source": "__PLACEHOLDER__"
          }
        },
        {
          "OID": "IT.LB.LBORRES",
          "mandatory": false,
          "name": "LBORRES",
          "description": "Result or Finding in Original Units",
          "role": "Result Qualifier",
          "dataType": "float",
          "length": 12,
          "displayFormat": "12.4",
          "significantDigits": 4
        },
        {
          "OID": "IT.LB.LBORRESU",
          "mandatory": false,
          "name": "LBORRESU",
          "description": "Original Units",
          "role": "Variable Qualifier",
          "dataType": "text",
          "length": 20,
          "origin": {
            "type": "Collected",
            "source": "Vendor"
          }
        },
        {
          "OID": "IT.LB.LBORNRLO",
          "mandatory": false,
          "name": "LBORNRLO",
          "description": "Reference Range Lower Limit in Orig Unit",
          "role": "Variable Qualifier",
          "dataType": "text",
          "length": null,
          "origin": {
            "type": "__PLACEHOLDER__",
            "source": "__PLACEHOLDER__"
          }
        },
        {
          "OID": "IT.LB.LBORNRHI",
          "mandatory": false,
          "name": "LBORNRHI",
          "description": "Reference Range Upper Limit in Orig Unit",
          "role": "Variable Qualifier",
          "dataType": "text",
          "length": null,
          "origin": {
            "type": "__PLACEHOLDER__",
            "source": "__PLACEHOLDER__"
          }
        },
        {
          "OID": "IT.LB.LBSTRESC",
          "mandatory": false,
          "name": "LBSTRESC",
          "description": "Character Result/Finding in Std Format",
          "role": "Result Qualifier",
          "dataType": "float",
          "length": 12,
          "displayFormat": "12.4",
          "significantDigits": 4,
          "origin": {
            "type": "Derived",
            "source": "Vendor"
          },
          "codeList": "CL.LBSTRESC"
        },
        {
          "OID": "IT.LB.LBSTRESN",
          "mandatory": false,
          "name": "LBSTRESN",
          "description": "Numeric Result/Finding in Standard Units",
          "role": "Result Qualifier",
          "dataType": "float",
          "length": 12,
          "displayFormat": "12.4",
          "significantDigits": 4,
          "origin": {
            "type": "Derived",
            "source": "Vendor"
          }
        },
        {
          "OID": "IT.LB.LBSTRESU",
          "mandatory": false,
          "name": "LBSTRESU",
          "description": "Standard Units",
          "role": "Variable Qualifier",
          "dataType": "text",
          "length": 20,
          "origin": {
            "type": "Assigned",
            "source": "Vendor"
          },
          "codeList": "CL.UNIT"
        },
        {
          "OID": "IT.LB.LBSTNRLO",
          "mandatory": false,
          "name": "LBSTNRLO",
          "description": "Reference Range Lower Limit-Std Units",
          "role": "Variable Qualifier",
          "dataType": "integer",
          "length": null,
          "origin": {
            "type": "__PLACEHOLDER__",
            "source": "__PLACEHOLDER__"
          }
        },
        {
          "OID": "IT.LB.LBSTNRHI",
          "mandatory": false,
          "name": "LBSTNRHI",
          "description": "Reference Range Upper Limit-Std Units",
          "role": "Variable Qualifier",
          "dataType": "integer",
          "length": null,
          "origin": {
            "type": "__PLACEHOLDER__",
            "source": "__PLACEHOLDER__"
          }
        },
        {
          "OID": "IT.LB.LBNRIND",
          "mandatory": false,
          "name": "LBNRIND",
          "description": "Reference Range Indicator",
          "role": "Variable Qualifier",
          "dataType": "text",
          "length": null,
          "origin": {
            "type": "__PLACEHOLDER__",
            "source": "__PLACEHOLDER__"
          },
          "codeList": "CL.NRIND"
        },
        {
          "OID": "IT.LB.LBSPEC",
          "mandatory": false,
          "name": "LBSPEC",
          "description": "Specimen Type",
          "role": "Record Qualifier",
          "dataType": "text",
          "length": null,
          "origin": {
            "type": "__PLACEHOLDER__",
            "source": "__PLACEHOLDER__"
          },
          "codeList": "CL.SPECTYPE"
        },
        {
          "OID": "IT.LB.LBMETHOD",
          "mandatory": false,
          "name": "LBMETHOD",
          "description": "Method of Test or Examination",
          "role": "Record Qualifier",
          "dataType": "text",
          "length": null,
          "origin": {
            "type": "__PLACEHOLDER__",
            "source": "__PLACEHOLDER__"
          },
          "codeList": "CL.METHOD"
        },
        {
          "OID": "IT.LB.LBLOBXFL",
          "mandatory": false,
          "name": "LBLOBXFL",
          "description": "Last Observation Before Exposure Flag",
          "role": "Record Qualifier",
          "dataType": "text",
          "length": null,
          "origin": {
            "type": "__PLACEHOLDER__",
            "source": "__PLACEHOLDER__"
          },
          "codeList": "CL.NY"
        },
        {
          "OID": "IT.LB.LBFAST",
          "mandatory": false,
          "name": "LBFAST",
          "description": "Fasting Status",
          "role": "Record Qualifier",
          "dataType": "text",
          "length": null,
          "origin": {
            "type": "__PLACEHOLDER__",
            "source": "__PLACEHOLDER__"
          },
          "codeList": "CL.NY_NY"
        },
        {
          "OID": "IT.LB.VISITNUM",
          "mandatory": false,
          "name": "VISITNUM",
          "description": "Visit Number",
          "role": "Timing",
          "dataType": "integer",
          "length": null,
          "origin": {
            "type": "__PLACEHOLDER__",
            "source": "__PLACEHOLDER__"
          }
        },
        {
          "OID": "IT.LB.LBDTC",
          "mandatory": false,
          "name": "LBDTC",
          "description": "Date/Time of Specimen Collection",
          "role": "Timing",
          "dataType": "datetime",
          "origin": {
            "type": "__PLACEHOLDER__",
            "source": "__PLACEHOLDER__"
          }
        }
      ],
      "slices": [
        {
          "OID": "VL.LB.LBORRES",
          "name": "VL_LB_LBORRES",
          "type": "ValueList",
          "wasDerivedFrom": "IT.LB.LBORRES",
          "items": [
            {
              "OID": "IT.LB.LBORRES.HGB",
              "mandatory": false,
              "name": "LBORRES",
              "dataType": "float",
              "length": 12,
              "displayFormat": "12.4",
              "significantDigits": 4,
              "origin": {
                "type": "Collected",
                "source": "Vendor"
              },
              "applicableWhen": [
                "WC.LB.c192b07f"
              ]
            },
            {
              "OID": "IT.LB.LBORRES.HCT",
              "mandatory": false,
              "name": "LBORRES",
              "dataType": "float",
              "length": 12,
              "displayFormat": "12.4",
              "significantDigits": 4,
              "origin": {
                "type": "Collected",
                "source": "Vendor"
              },
              "applicableWhen": [
                "WC.LB.82b97100"
              ]
            },
            {
              "OID": "IT.LB.LBORRES.RBC",
              "mandatory": false,
              "name": "LBORRES",
              "dataType": "float",
              "length": 12,
              "displayFormat": "12.4",
              "significantDigits": 4,
              "origin": {
                "type": "Collected",
                "source": "Vendor"
              },
              "applicableWhen": [
                "WC.LB.87582e25"
              ]
            },
            {
              "OID": "IT.LB.LBORRES.MCH",
              "mandatory": false,
              "name": "LBORRES",
              "dataType": "float",
              "length": 12,
              "displayFormat": "12.4",
              "significantDigits": 4,
              "origin": {
                "type": "Collected",
                "source": "Vendor"
              },
              "applicableWhen": [
                "WC.LB.95f4de22"
              ]
            },
            {
              "OID": "IT.LB.LBORRES.MCHC",
              "mandatory": false,
              "name": "LBORRES",
              "dataType": "float",
              "length": 12,
              "displayFormat": "12.4",
              "significantDigits": 4,
              "origin": {
                "type": "Collected",
                "source": "Vendor"
              },
              "applicableWhen": [
                "WC.LB.92bd1f17"
              ]
            },
            {
              "OID": "IT.LB.LBORRES.MCV",
              "mandatory": false,
              "name": "LBORRES",
              "dataType": "float",
              "length": 12,
              "displayFormat": "12.4",
              "significantDigits": 4,
              "origin": {
                "type": "Collected",
                "source": "Vendor"
              },
              "applicableWhen": [
                "WC.LB.24c0e2bc"
              ]
            },
            {
              "OID": "IT.LB.LBORRES.WBC",
              "mandatory": false,
              "name": "LBORRES",
              "dataType": "float",
              "length": 12,
              "displayFormat": "12.4",
              "significantDigits": 4,
              "origin": {
                "type": "Collected",
                "source": "Vendor"
              },
              "applicableWhen": [
                "WC.LB.351df44b"
              ]
            },
            {
              "OID": "IT.LB.LBORRES.NEUTSG",
              "mandatory": false,
              "name": "LBORRES",
              "dataType": "float",
              "length": 12,
              "displayFormat": "12.4",
              "significantDigits": 4,
              "origin": {
                "type": "Collected",
                "source": "Vendor"
              },
              "applicableWhen": [
                "WC.LB.5f2a0bab"
              ]
            },
            {
              "OID": "IT.LB.LBORRES.NEUTB",
              "mandatory": false,
              "name": "LBORRES",
              "dataType": "float",
              "length": 12,
              "displayFormat": "12.4",
              "significantDigits": 4,
              "origin": {
                "type": "Collected",
                "source": "Vendor"
              },
              "applicableWhen": [
                "WC.LB.eea0ae49"
              ]
            },
            {
              "OID": "IT.LB.LBORRES.NEUT",
              "mandatory": false,
              "name": "LBORRES",
              "dataType": "float",
              "length": 12,
              "displayFormat": "12.4",
              "significantDigits": 4,
              "origin": {
                "type": "Collected",
                "source": "Vendor"
              },
              "applicableWhen": [
                "WC.LB.550c7a01"
              ]
            },
            {
              "OID": "IT.LB.LBORRES.MONO",
              "mandatory": false,
              "name": "LBORRES",
              "dataType": "float",
              "length": 12,
              "displayFormat": "12.4",
              "significantDigits": 4,
              "origin": {
                "type": "Collected",
                "source": "Vendor"
              },
              "applicableWhen": [
                "WC.LB.de4c119b"
              ]
            },
            {
              "OID": "IT.LB.LBORRES.EOS",
              "mandatory": false,
              "name": "LBORRES",
              "dataType": "float",
              "length": 12,
              "displayFormat": "12.4",
              "significantDigits": 4,
              "origin": {
                "type": "Collected",
                "source": "Vendor"
              },
              "applicableWhen": [
                "WC.LB.a5684311"
              ]
            },
            {
              "OID": "IT.LB.LBORRES.BASO",
              "mandatory": false,
              "name": "LBORRES",
              "dataType": "float",
              "length": 12,
              "displayFormat": "12.4",
              "significantDigits": 4,
              "origin": {
                "type": "Collected",
                "source": "Vendor"
              },
              "applicableWhen": [
                "WC.LB.7b86c15b"
              ]
            },
            {
              "OID": "IT.LB.LBORRES.PLAT",
              "mandatory": false,
              "name": "LBORRES",
              "dataType": "float",
              "length": 12,
              "displayFormat": "12.4",
              "significantDigits": 4,
              "origin": {
                "type": "Collected",
                "source": "Vendor"
              },
              "applicableWhen": [
                "WC.LB.3a9d73e1"
              ]
            },
            {
              "OID": "IT.LB.LBORRES.MICROCY",
              "mandatory": false,
              "name": "LBORRES",
              "dataType": "text",
              "length": 200,
              "origin": {
                "type": "Collected",
                "source": "Vendor"
              },
              "applicableWhen": [
                "WC.LB.ddc3319f"
              ]
            },
            {
              "OID": "IT.LB.LBORRES.MACROCY",
              "mandatory": false,
              "name": "LBORRES",
              "dataType": "text",
              "length": 200,
              "origin": {
                "type": "Collected",
                "source": "Vendor"
              },
              "applicableWhen": [
                "WC.LB.116f85e4"
              ]
            },
            {
              "OID": "IT.LB.LBORRES.ANISO",
              "mandatory": false,
              "name": "LBORRES",
              "dataType": "text",
              "length": 200,
              "origin": {
                "type": "Collected",
                "source": "Vendor"
              },
              "applicableWhen": [
                "WC.LB.84ceb0ad"
              ]
            },
            {
              "OID": "IT.LB.LBORRES.POIKILO",
              "mandatory": false,
              "name": "LBORRES",
              "dataType": "text",
              "length": 200,
              "origin": {
                "type": "Collected",
                "source": "Vendor"
              },
              "applicableWhen": [
                "WC.LB.b622c728"
              ]
            },
            {
              "OID": "IT.LB.LBORRES.POLYCHR",
              "mandatory": false,
              "name": "LBORRES",
              "dataType": "text",
              "length": 200,
              "origin": {
                "type": "Collected",
                "source": "Vendor"
              },
              "applicableWhen": [
                "WC.LB.87b1b367"
              ]
            },
            {
              "OID": "IT.LB.LBORRES.ALT",
              "mandatory": false,
              "name": "LBORRES",
              "dataType": "float",
              "length": 12,
              "displayFormat": "12.4",
              "significantDigits": 4,
              "origin": {
                "type": "Collected",
                "source": "Vendor"
              },
              "applicableWhen": [
                "WC.LB.5412b298"
              ]
            },
            {
              "OID": "IT.LB.LBORRES.ALB",
              "mandatory": false,
              "name": "LBORRES",
              "dataType": "text",
              "length": 200,
              "significantDigits": 4,
              "origin": {
                "type": "Collected",
                "source": "Vendor"
              },
              "applicableWhen": [
                "WC.LB.e42a3c09"
              ]
            },
            {
              "OID": "IT.LB.LBORRES.ALP",
              "mandatory": false,
              "name": "LBORRES",
              "dataType": "float",
              "length": 12,
              "displayFormat": "12.4",
              "significantDigits": 4,
              "origin": {
                "type": "Collected",
                "source": "Vendor"
              },
              "applicableWhen": [
                "WC.LB.cdac7fcc"
              ]
            },
            {
              "OID": "IT.LB.LBORRES.AST",
              "mandatory": false,
              "name": "LBORRES",
              "dataType": "float",
              "length": 12,
              "displayFormat": "12.4",
              "significantDigits": 4,
              "origin": {
                "type": "Collected",
                "source": "Vendor"
              },
              "applicableWhen": [
                "WC.LB.b9d7ddba"
              ]
            },
            {
              "OID": "IT.LB.LBORRES.CREAT",
              "mandatory": false,
              "name": "LBORRES",
              "dataType": "float",
              "length": 12,
              "displayFormat": "12.4",
              "significantDigits": 4,
              "origin": {
                "type": "Collected",
                "source": "Vendor"
              },
              "applicableWhen": [
                "WC.LB.969c1a6d"
              ]
            },
            {
              "OID": "IT.LB.LBORRES.K",
              "mandatory": false,
              "name": "LBORRES",
              "dataType": "float",
              "length": 12,
              "displayFormat": "12.4",
              "significantDigits": 4,
              "origin": {
                "type": "Collected",
                "source": "Vendor"
              },
              "applicableWhen": [
                "WC.LB.7ce691fd"
              ]
            },
            {
              "OID": "IT.LB.LBORRES.SODIUM",
              "mandatory": false,
              "name": "LBORRES",
              "dataType": "float",
              "length": 12,
              "displayFormat": "12.4",
              "significantDigits": 4,
              "origin": {
                "type": "Collected",
                "source": "Vendor"
              },
              "applicableWhen": [
                "WC.LB.88601b52"
              ]
            },
            {
              "OID": "IT.LB.LBORRES.UREAN",
              "mandatory": false,
              "name": "LBORRES",
              "dataType": "float",
              "length": 12,
              "displayFormat": "12.4",
              "significantDigits": 4,
              "origin": {
                "type": "Collected",
                "source": "Vendor"
              },
              "applicableWhen": [
                "WC.LB.42392cd1"
              ]
            },
            {
              "OID": "IT.LB.LBORRES.BICARB",
              "mandatory": false,
              "name": "LBORRES",
              "dataType": "float",
              "length": 12,
              "displayFormat": "12.4",
              "significantDigits": 4,
              "origin": {
                "type": "Collected",
                "source": "Vendor"
              },
              "applicableWhen": [
                "WC.LB.9279ec22"
              ]
            },
            {
              "OID": "IT.LB.LBORRES.CL",
              "mandatory": false,
              "name": "LBORRES",
              "dataType": "float",
              "length": 12,
              "displayFormat": "12.4",
              "significantDigits": 4,
              "origin": {
                "type": "Collected",
                "source": "Vendor"
              },
              "applicableWhen": [
                "WC.LB.8b779a3b"
              ]
            },
            {
              "OID": "IT.LB.LBORRES.BILI",
              "mandatory": false,
              "name": "LBORRES",
              "dataType": "text",
              "length": 200,
              "significantDigits": 4,
              "origin": {
                "type": "Collected",
                "source": "Vendor"
              },
              "applicableWhen": [
                "WC.LB.cfe14422"
              ]
            },
            {
              "OID": "IT.LB.LBORRES.GGT",
              "mandatory": false,
              "name": "LBORRES",
              "dataType": "float",
              "length": 12,
              "displayFormat": "12.4",
              "significantDigits": 4,
              "origin": {
                "type": "Collected",
                "source": "Vendor"
              },
              "applicableWhen": [
                "WC.LB.8285c765"
              ]
            },
            {
              "OID": "IT.LB.LBORRES.URATE",
              "mandatory": false,
              "name": "LBORRES",
              "dataType": "float",
              "length": 12,
              "displayFormat": "12.4",
              "significantDigits": 4,
              "origin": {
                "type": "Collected",
                "source": "Vendor"
              },
              "applicableWhen": [
                "WC.LB.37c7b4ba"
              ]
            },
            {
              "OID": "IT.LB.LBORRES.PHOS",
              "mandatory": false,
              "name": "LBORRES",
              "dataType": "float",
              "length": 12,
              "displayFormat": "12.4",
              "significantDigits": 4,
              "origin": {
                "type": "Collected",
                "source": "Vendor"
              },
              "applicableWhen": [
                "WC.LB.e4e81dc5"
              ]
            },
            {
              "OID": "IT.LB.LBORRES.CA",
              "mandatory": false,
              "name": "LBORRES",
              "dataType": "float",
              "length": 12,
              "displayFormat": "12.4",
              "significantDigits": 4,
              "origin": {
                "type": "Collected",
                "source": "Vendor"
              },
              "applicableWhen": [
                "WC.LB.470def9b"
              ]
            },
            {
              "OID": "IT.LB.LBORRES.GLUC",
              "mandatory": false,
              "name": "LBORRES",
              "dataType": "text",
              "length": 200,
              "applicableWhen": [
                "WC.LB.c891c160"
              ]
            },
            {
              "OID": "IT.LB.LBORRES.PROT",
              "mandatory": false,
              "name": "LBORRES",
              "dataType": "text",
              "length": 200,
              "significantDigits": 4,
              "origin": {
                "type": "Collected",
                "source": "Vendor"
              },
              "applicableWhen": [
                "WC.LB.abcfd20c"
              ]
            },
            {
              "OID": "IT.LB.LBORRES.CHOL",
              "mandatory": false,
              "name": "LBORRES",
              "dataType": "float",
              "length": 12,
              "displayFormat": "12.4",
              "significantDigits": 4,
              "origin": {
                "type": "Collected",
                "source": "Vendor"
              },
              "applicableWhen": [
                "WC.LB.5a1bca67"
              ]
            },
            {
              "OID": "IT.LB.LBORRES.T3UP",
              "mandatory": false,
              "name": "LBORRES",
              "dataType": "float",
              "length": 12,
              "displayFormat": "12.4",
              "significantDigits": 4,
              "origin": {
                "type": "Collected",
                "source": "Vendor"
              },
              "applicableWhen": [
                "WC.LB.4226ee02"
              ]
            },
            {
              "OID": "IT.LB.LBORRES.T3",
              "mandatory": false,
              "name": "LBORRES",
              "dataType": "float",
              "length": 12,
              "displayFormat": "12.4",
              "significantDigits": 4,
              "origin": {
                "type": "Collected",
                "source": "Vendor"
              },
              "applicableWhen": [
                "WC.LB.df33e99e"
              ]
            },
            {
              "OID": "IT.LB.LBORRES.T4FR",
              "mandatory": false,
              "name": "LBORRES",
              "dataType": "float",
              "length": 12,
              "displayFormat": "12.4",
              "significantDigits": 4,
              "origin": {
                "type": "Collected",
                "source": "Vendor"
              },
              "applicableWhen": [
                "WC.LB.30f3d8b3"
              ]
            },
            {
              "OID": "IT.LB.LBORRES.T4FRIDX",
              "mandatory": false,
              "name": "LBORRES",
              "dataType": "float",
              "length": 12,
              "displayFormat": "12.4",
              "significantDigits": 4,
              "origin": {
                "type": "Collected",
                "source": "Vendor"
              },
              "applicableWhen": [
                "WC.LB.f59f4529"
              ]
            },
            {
              "OID": "IT.LB.LBORRES.TSH",
              "mandatory": false,
              "name": "LBORRES",
              "dataType": "float",
              "length": 12,
              "displayFormat": "12.4",
              "significantDigits": 4,
              "origin": {
                "type": "Collected",
                "source": "Vendor"
              },
              "applicableWhen": [
                "WC.LB.c54221c6"
              ]
            },
            {
              "OID": "IT.LB.LBORRES.VITB9",
              "mandatory": false,
              "name": "LBORRES",
              "dataType": "float",
              "length": 12,
              "displayFormat": "12.4",
              "significantDigits": 4,
              "origin": {
                "type": "Collected",
                "source": "Vendor"
              },
              "applicableWhen": [
                "WC.LB.cb02cad8"
              ]
            },
            {
              "OID": "IT.LB.LBORRES.VITB12",
              "mandatory": false,
              "name": "LBORRES",
              "dataType": "float",
              "length": 12,
              "displayFormat": "12.4",
              "significantDigits": 4,
              "origin": {
                "type": "Collected",
                "source": "Vendor"
              },
              "applicableWhen": [
                "WC.LB.d0f49556"
              ]
            },
            {
              "OID": "IT.LB.LBORRES.COLOR",
              "mandatory": false,
              "name": "LBORRES",
              "dataType": "text",
              "length": 200,
              "origin": {
                "type": "Collected",
                "source": "Vendor"
              },
              "applicableWhen": [
                "WC.LB.4987b41e"
              ]
            },
            {
              "OID": "IT.LB.LBORRES.SPGRAV",
              "mandatory": false,
              "name": "LBORRES",
              "dataType": "float",
              "length": 12,
              "displayFormat": "12.4",
              "significantDigits": 4,
              "origin": {
                "type": "Collected",
                "source": "Vendor"
              },
              "applicableWhen": [
                "WC.LB.cbf789d8"
              ]
            },
            {
              "OID": "IT.LB.LBORRES.KETONES",
              "mandatory": false,
              "name": "LBORRES",
              "dataType": "text",
              "length": 200,
              "significantDigits": 4,
              "origin": {
                "type": "Collected",
                "source": "Vendor"
              },
              "applicableWhen": [
                "WC.LB.3239d7a3"
              ]
            },
            {
              "OID": "IT.LB.LBORRES.UROBIL",
              "mandatory": false,
              "name": "LBORRES",
              "dataType": "float",
              "length": 12,
              "displayFormat": "12.4",
              "significantDigits": 4,
              "origin": {
                "type": "Collected",
                "source": "Vendor"
              },
              "applicableWhen": [
                "WC.LB.59366afe"
              ]
            },
            {
              "OID": "IT.LB.LBORRES.OCCBLD",
              "mandatory": false,
              "name": "LBORRES",
              "dataType": "text",
              "length": 200,
              "significantDigits": 4,
              "origin": {
                "type": "Collected",
                "source": "Vendor"
              },
              "applicableWhen": [
                "WC.LB.3adc4566"
              ]
            },
            {
              "OID": "IT.LB.LBORRES.NITRITE",
              "mandatory": false,
              "name": "LBORRES",
              "dataType": "text",
              "length": 200,
              "significantDigits": 4,
              "origin": {
                "type": "Collected",
                "source": "Vendor"
              },
              "applicableWhen": [
                "WC.LB.59074de1"
              ]
            },
            {
              "OID": "IT.LB.LBORRES.HBA1C",
              "mandatory": false,
              "name": "LBORRES",
              "dataType": "float",
              "length": 12,
              "displayFormat": "12.4",
              "significantDigits": 4,
              "origin": {
                "type": "Collected",
                "source": "Vendor"
              },
              "applicableWhen": [
                "WC.LB.c1765eee"
              ]
            },
            {
              "OID": "IT.LB.LBORRES.HBA1CHGB",
              "mandatory": false,
              "name": "LBORRES",
              "dataType": "float",
              "length": 12,
              "displayFormat": "12.4",
              "significantDigits": 4,
              "origin": {
                "type": "Collected",
                "source": "Vendor"
              },
              "applicableWhen": [
                "WC.LB.dd459ec6"
              ]
            }
          ]
        },
        {
          "OID": "VL.LB.LBORRESU",
          "name": "VL_LB_LBORRESU",
          "type": "ValueList",
          "wasDerivedFrom": "IT.LB.LBORRESU",
          "items": [
            {
              "OID": "IT.LB.LBORRESU.HGB",
              "mandatory": false,
              "name": "LBORRESU",
              "dataType": "text",
              "length": null,
              "codeList": "CL.UNIT",
              "applicableWhen": [
                "WC.LB.e9a1c33d"
              ]
            },
            {
              "OID": "IT.LB.LBORRESU.HCT",
              "mandatory": false,
              "name": "LBORRESU",
              "dataType": "text",
              "length": null,
              "codeList": "CL.UNIT",
              "applicableWhen": [
                "WC.LB.7f0975c7"
              ]
            },
            {
              "OID": "IT.LB.LBORRESU.RBC",
              "mandatory": false,
              "name": "LBORRESU",
              "dataType": "text",
              "length": null,
              "codeList": "CL.UNIT",
              "applicableWhen": [
                "WC.LB.f7f1de35"
              ]
            },
            {
              "OID": "IT.LB.LBORRESU.MCH",
              "mandatory": false,
              "name": "LBORRESU",
              "dataType": "text",
              "length": null,
              "codeList": "CL.UNIT",
              "applicableWhen": [
                "WC.LB.c32acb17"
              ]
            },
            {
              "OID": "IT.LB.LBORRESU.MCHC",
              "mandatory": false,
              "name": "LBORRESU",
              "dataType": "text",
              "length": null,
              "codeList": "CL.UNIT",
              "applicableWhen": [
                "WC.LB.eb7f048a"
              ]
            },
            {
              "OID": "IT.LB.LBORRESU.MCV",
              "mandatory": false,
              "name": "LBORRESU",
              "dataType": "text",
              "length": null,
              "codeList": "CL.UNIT",
              "applicableWhen": [
                "WC.LB.e881d4b5"
              ]
            },
            {
              "OID": "IT.LB.LBORRESU.WBC",
              "mandatory": false,
              "name": "LBORRESU",
              "dataType": "text",
              "length": null,
              "codeList": "CL.UNIT",
              "applicableWhen": [
                "WC.LB.41785be6"
              ]
            },
            {
              "OID": "IT.LB.LBORRESU.NEUTSG",
              "mandatory": false,
              "name": "LBORRESU",
              "dataType": "text",
              "length": null,
              "codeList": "CL.UNIT",
              "applicableWhen": [
                "WC.LB.a68e5eaa"
              ]
            },
            {
              "OID": "IT.LB.LBORRESU.NEUTB",
              "mandatory": false,
              "name": "LBORRESU",
              "dataType": "text",
              "length": null,
              "codeList": "CL.UNIT",
              "applicableWhen": [
                "WC.LB.aad6dbd6"
              ]
            },
            {
              "OID": "IT.LB.LBORRESU.NEUT",
              "mandatory": false,
              "name": "LBORRESU",
              "dataType": "text",
              "length": null,
              "codeList": "CL.UNIT",
              "applicableWhen": [
                "WC.LB.d13d6578"
              ]
            },
            {
              "OID": "IT.LB.LBORRESU.MONO",
              "mandatory": false,
              "name": "LBORRESU",
              "dataType": "text",
              "length": null,
              "codeList": "CL.UNIT",
              "applicableWhen": [
                "WC.LB.00e6d228"
              ]
            },
            {
              "OID": "IT.LB.LBORRESU.EOS",
              "mandatory": false,
              "name": "LBORRESU",
              "dataType": "text",
              "length": null,
              "codeList": "CL.UNIT",
              "applicableWhen": [
                "WC.LB.ef654de1"
              ]
            },
            {
              "OID": "IT.LB.LBORRESU.BASO",
              "mandatory": false,
              "name": "LBORRESU",
              "dataType": "text",
              "length": null,
              "codeList": "CL.UNIT",
              "applicableWhen": [
                "WC.LB.b6fa6e8d"
              ]
            },
            {
              "OID": "IT.LB.LBORRESU.PLAT",
              "mandatory": false,
              "name": "LBORRESU",
              "dataType": "text",
              "length": null,
              "codeList": "CL.UNIT",
              "applicableWhen": [
                "WC.LB.90eedf3b"
              ]
            },
            {
              "OID": "IT.LB.LBORRESU.ALT",
              "mandatory": false,
              "name": "LBORRESU",
              "dataType": "text",
              "length": null,
              "codeList": "CL.UNIT",
              "applicableWhen": [
                "WC.LB.8914eb45"
              ]
            },
            {
              "OID": "IT.LB.LBORRESU.ALP",
              "mandatory": false,
              "name": "LBORRESU",
              "dataType": "text",
              "length": null,
              "codeList": "CL.UNIT",
              "applicableWhen": [
                "WC.LB.6660e11c"
              ]
            },
            {
              "OID": "IT.LB.LBORRESU.AST",
              "mandatory": false,
              "name": "LBORRESU",
              "dataType": "text",
              "length": null,
              "codeList": "CL.UNIT",
              "applicableWhen": [
                "WC.LB.37e389df"
              ]
            },
            {
              "OID": "IT.LB.LBORRESU.CREAT",
              "mandatory": false,
              "name": "LBORRESU",
              "dataType": "text",
              "length": null,
              "codeList": "CL.UNIT",
              "applicableWhen": [
                "WC.LB.549f5ae4"
              ]
            },
            {
              "OID": "IT.LB.LBORRESU.K",
              "mandatory": false,
              "name": "LBORRESU",
              "dataType": "text",
              "length": null,
              "codeList": "CL.UNIT",
              "applicableWhen": [
                "WC.LB.ee634517"
              ]
            },
            {
              "OID": "IT.LB.LBORRESU.SODIUM",
              "mandatory": false,
              "name": "LBORRESU",
              "dataType": "text",
              "length": null,
              "codeList": "CL.UNIT",
              "applicableWhen": [
                "WC.LB.07a8daa1"
              ]
            },
            {
              "OID": "IT.LB.LBORRESU.UREAN",
              "mandatory": false,
              "name": "LBORRESU",
              "dataType": "text",
              "length": null,
              "codeList": "CL.UNIT",
              "applicableWhen": [
                "WC.LB.91d1c3d5"
              ]
            },
            {
              "OID": "IT.LB.LBORRESU.BICARB",
              "mandatory": false,
              "name": "LBORRESU",
              "dataType": "text",
              "length": null,
              "codeList": "CL.UNIT",
              "applicableWhen": [
                "WC.LB.9df0845c"
              ]
            },
            {
              "OID": "IT.LB.LBORRESU.CL",
              "mandatory": false,
              "name": "LBORRESU",
              "dataType": "text",
              "length": null,
              "codeList": "CL.UNIT",
              "applicableWhen": [
                "WC.LB.cc8b6004"
              ]
            },
            {
              "OID": "IT.LB.LBORRESU.GGT",
              "mandatory": false,
              "name": "LBORRESU",
              "dataType": "text",
              "length": null,
              "codeList": "CL.UNIT",
              "applicableWhen": [
                "WC.LB.3c564f36"
              ]
            },
            {
              "OID": "IT.LB.LBORRESU.URATE",
              "mandatory": false,
              "name": "LBORRESU",
              "dataType": "text",
              "length": null,
              "codeList": "CL.UNIT",
              "applicableWhen": [
                "WC.LB.13fbb1a5"
              ]
            },
            {
              "OID": "IT.LB.LBORRESU.PHOS",
              "mandatory": false,
              "name": "LBORRESU",
              "dataType": "text",
              "length": null,
              "codeList": "CL.UNIT",
              "applicableWhen": [
                "WC.LB.3749493c"
              ]
            },
            {
              "OID": "IT.LB.LBORRESU.CA",
              "mandatory": false,
              "name": "LBORRESU",
              "dataType": "text",
              "length": null,
              "codeList": "CL.UNIT",
              "applicableWhen": [
                "WC.LB.38f9f39d"
              ]
            },
            {
              "OID": "IT.LB.LBORRESU.CHOL",
              "mandatory": false,
              "name": "LBORRESU",
              "dataType": "text",
              "length": null,
              "codeList": "CL.UNIT",
              "applicableWhen": [
                "WC.LB.516f3664"
              ]
            },
            {
              "OID": "IT.LB.LBORRESU.T3UP",
              "mandatory": false,
              "name": "LBORRESU",
              "dataType": "text",
              "length": null,
              "codeList": "CL.UNIT",
              "applicableWhen": [
                "WC.LB.dcbcbe57"
              ]
            },
            {
              "OID": "IT.LB.LBORRESU.T3",
              "mandatory": false,
              "name": "LBORRESU",
              "dataType": "text",
              "length": null,
              "codeList": "CL.UNIT",
              "applicableWhen": [
                "WC.LB.b7b215a1"
              ]
            },
            {
              "OID": "IT.LB.LBORRESU.T4FR",
              "mandatory": false,
              "name": "LBORRESU",
              "dataType": "text",
              "length": null,
              "codeList": "CL.UNIT",
              "applicableWhen": [
                "WC.LB.0f071538"
              ]
            },
            {
              "OID": "IT.LB.LBORRESU.T4FRIDX",
              "mandatory": false,
              "name": "LBORRESU",
              "dataType": "text",
              "length": null,
              "codeList": "CL.UNIT",
              "applicableWhen": [
                "WC.LB.258e657c"
              ]
            },
            {
              "OID": "IT.LB.LBORRESU.TSH",
              "mandatory": false,
              "name": "LBORRESU",
              "dataType": "text",
              "length": null,
              "codeList": "CL.UNIT",
              "applicableWhen": [
                "WC.LB.d675561c"
              ]
            },
            {
              "OID": "IT.LB.LBORRESU.VITB9",
              "mandatory": false,
              "name": "LBORRESU",
              "dataType": "text",
              "length": null,
              "codeList": "CL.UNIT",
              "applicableWhen": [
                "WC.LB.e81938d6"
              ]
            },
            {
              "OID": "IT.LB.LBORRESU.VITB12",
              "mandatory": false,
              "name": "LBORRESU",
              "dataType": "text",
              "length": null,
              "codeList": "CL.UNIT",
              "applicableWhen": [
                "WC.LB.54dda2d1"
              ]
            },
            {
              "OID": "IT.LB.LBORRESU.UROBIL",
              "mandatory": false,
              "name": "LBORRESU",
              "dataType": "text",
              "length": null,
              "codeList": "CL.UNIT",
              "applicableWhen": [
                "WC.LB.e6a434ec"
              ]
            },
            {
              "OID": "IT.LB.LBORRESU.HBA1C",
              "mandatory": false,
              "name": "LBORRESU",
              "dataType": "text",
              "length": null,
              "codeList": "CL.UNIT",
              "applicableWhen": [
                "WC.LB.9e9118c8"
              ]
            },
            {
              "OID": "IT.LB.LBORRESU.HBA1CHGB",
              "mandatory": false,
              "name": "LBORRESU",
              "dataType": "text",
              "length": null,
              "codeList": "CL.UNIT",
              "applicableWhen": [
                "WC.LB.8644d9ca"
              ]
            }
          ]
        }
      ]
    },
    {
      "OID": "IG.MB",
      "name": "MB",
      "description": "Microbiology Specimen",
      "domain": "MB",
      "purpose": "Tabulation",
      "structure": "One record per microbiology specimen finding per time point per visit per subject",
      "isReferenceData": false,
      "keySequence": [
        "__PLACEHOLDER__"
      ],
      "standard": "STD.SDTMIG",
      "observationClass": {
        "name": "FINDINGS"
      },
      "items": [
        {
          "OID": "IT.MB.STUDYID",
          "mandatory": true,
          "name": "STUDYID",
          "description": "Study Identifier",
          "role": "Identifier",
          "dataType": "text",
          "length": null,
          "origin": {
            "type": "__PLACEHOLDER__",
            "source": "__PLACEHOLDER__"
          }
        },
        {
          "OID": "IT.MB.DOMAIN",
          "mandatory": true,
          "name": "DOMAIN",
          "description": "Domain Abbreviation",
          "role": "Identifier",
          "dataType": "text",
          "length": null,
          "origin": {
            "type": "__PLACEHOLDER__",
            "source": "__PLACEHOLDER__"
          }
        },
        {
          "OID": "IT.MB.USUBJID",
          "mandatory": true,
          "name": "USUBJID",
          "description": "Unique Subject Identifier",
          "role": "Identifier",
          "dataType": "text",
          "length": null,
          "origin": {
            "type": "__PLACEHOLDER__",
            "source": "__PLACEHOLDER__"
          }
        },
        {
          "OID": "IT.MB.MBSEQ",
          "mandatory": true,
          "name": "MBSEQ",
          "description": "Sequence Number",
          "role": "Identifier",
          "dataType": "integer",
          "length": null,
          "origin": {
            "type": "__PLACEHOLDER__",
            "source": "__PLACEHOLDER__"
          }
        },
        {
          "OID": "IT.MB.MBTESTCD",
          "mandatory": true,
          "name": "MBTESTCD",
          "description": "Microbiology Test or Finding Short Name",
          "role": "Topic",
          "dataType": "text",
          "length": null,
          "origin": {
            "type": "__PLACEHOLDER__",
            "source": "__PLACEHOLDER__"
          },
          "codeList": "CL.MBTESTCD"
        },
        {
          "OID": "IT.MB.MBTEST",
          "mandatory": true,
          "name": "MBTEST",
          "description": "Microbiology Test or Finding Name",
          "role": "Synonym Qualifier",
          "dataType": "text",
          "length": null,
          "origin": {
            "type": "__PLACEHOLDER__",
            "source": "__PLACEHOLDER__"
          },
          "codeList": "CL.MBTEST"
        },
        {
          "OID": "IT.MB.MBTSTDTL",
          "mandatory": false,
          "name": "MBTSTDTL",
          "description": "Measurement, Test or Examination Detail",
          "role": "Variable Qualifier",
          "dataType": "text",
          "length": null,
          "origin": {
            "type": "__PLACEHOLDER__",
            "source": "__PLACEHOLDER__"
          },
          "codeList": "CL.MBFTSDTL"
        },
        {
          "OID": "IT.MB.MBORRES",
          "mandatory": false,
          "name": "MBORRES",
          "description": "Result or Finding in Original Units",
          "role": "Result Qualifier",
          "dataType": "text",
          "length": 20,
          "origin": {
            "type": "Collected",
            "source": "Vendor"
          }
        },
        {
          "OID": "IT.MB.MBSTRESC",
          "mandatory": false,
          "name": "MBSTRESC",
          "description": "Result or Finding in Standard Format",
          "role": "Result Qualifier",
          "dataType": "text",
          "length": 20,
          "origin": {
            "type": "Derived",
            "source": "Vendor"
          }
        },
        {
          "OID": "IT.MB.MBSPEC",
          "mandatory": false,
          "name": "MBSPEC",
          "description": "Specimen Material Type",
          "role": "Record Qualifier",
          "dataType": "text",
          "length": null,
          "origin": {
            "type": "__PLACEHOLDER__",
            "source": "__PLACEHOLDER__"
          },
          "codeList": "CL.SPECTYPE"
        },
        {
          "OID": "IT.MB.MBMETHOD",
          "mandatory": false,
          "name": "MBMETHOD",
          "description": "Method of Test or Examination",
          "role": "Record Qualifier",
          "dataType": "text",
          "length": null,
          "origin": {
            "type": "__PLACEHOLDER__",
            "source": "__PLACEHOLDER__"
          },
          "codeList": "CL.METHOD"
        },
        {
          "OID": "IT.MB.VISITNUM",
          "mandatory": false,
          "name": "VISITNUM",
          "description": "Visit Number",
          "role": "Timing",
          "dataType": "integer",
          "length": null,
          "origin": {
            "type": "__PLACEHOLDER__",
            "source": "__PLACEHOLDER__"
          }
        },
        {
          "OID": "IT.MB.MBDTC",
          "mandatory": false,
          "name": "MBDTC",
          "description": "Date/Time of Collection",
          "role": "Timing",
          "dataType": "datetime",
          "origin": {
            "type": "__PLACEHOLDER__",
            "source": "__PLACEHOLDER__"
          }
        }
      ],
      "slices": [
        {
          "OID": "VL.MB.MBORRES",
          "name": "VL_MB_MBORRES",
          "type": "ValueList",
          "wasDerivedFrom": "IT.MB.MBORRES",
          "items": [
            {
              "OID": "IT.MB.MBORRES.TPLAB",
              "mandatory": false,
              "name": "MBORRES",
              "dataType": "text",
              "length": 20,
              "applicableWhen": [
                "WC.MB.49773274"
              ]
            },
            {
              "OID": "IT.MB.MBORRES.TPADNA",
              "mandatory": false,
              "name": "MBORRES",
              "dataType": "text",
              "length": 20,
              "applicableWhen": [
                "WC.MB.e698c5a2"
              ]
            }
          ]
        }
      ]
    },
    {
      "OID": "IG.EC",
      "name": "EC",
      "description": "Exposure as Collected",
      "domain": "EC",
      "purpose": "Tabulation",
      "structure": "One record per protocol-specified study treatment, collected-dosing interval, per subject, per mood",
      "isReferenceData": false,
      "keySequence": [
        "__PLACEHOLDER__"
      ],
      "standard": "STD.SDTMIG",
      "observationClass": {
        "name": "INTERVENTIONS"
      },
      "items": [
        {
          "OID": "IT.EC.STUDYID",
          "mandatory": true,
          "name": "STUDYID",
          "description": "Study Identifier",
          "role": "Identifier",
          "dataType": "text",
          "length": null,
          "origin": {
            "type": "__PLACEHOLDER__",
            "source": "__PLACEHOLDER__"
          }
        },
        {
          "OID": "IT.EC.DOMAIN",
          "mandatory": true,
          "name": "DOMAIN",
          "description": "Domain Abbreviation",
          "role": "Identifier",
          "dataType": "text",
          "length": null,
          "origin": {
            "type": "__PLACEHOLDER__",
            "source": "__PLACEHOLDER__"
          }
        },
        {
          "OID": "IT.EC.USUBJID",
          "mandatory": true,
          "name": "USUBJID",
          "description": "Unique Subject Identifier",
          "role": "Identifier",
          "dataType": "text",
          "length": null,
          "origin": {
            "type": "__PLACEHOLDER__",
            "source": "__PLACEHOLDER__"
          }
        },
        {
          "OID": "IT.EC.ECSEQ",
          "mandatory": true,
          "name": "ECSEQ",
          "description": "Sequence Number",
          "role": "Identifier",
          "dataType": "integer",
          "length": null,
          "origin": {
            "type": "__PLACEHOLDER__",
            "source": "__PLACEHOLDER__"
          }
        },
        {
          "OID": "IT.EC.ECREFID",
          "mandatory": false,
          "name": "ECREFID",
          "description": "Reference ID",
          "role": "Identifier",
          "dataType": "text",
          "length": null,
          "origin": {
            "type": "Collected",
            "source": "Investigator"
          }
        },
        {
          "OID": "IT.EC.ECTRT",
          "mandatory": true,
          "name": "ECTRT",
          "description": "Name of Treatment",
          "role": "Topic",
          "dataType": "text",
          "length": 200,
          "origin": {
            "type": "Collected",
            "source": "Investigator"
          }
        },
        {
          "OID": "IT.EC.ECDOSE",
          "mandatory": false,
          "name": "ECDOSE",
          "description": "Dose",
          "role": "Record Qualifier",
          "dataType": "integer",
          "length": 20,
          "origin": {
            "type": "Collected",
            "source": "Investigator"
          }
        },
        {
          "OID": "IT.EC.ECDOSTXT",
          "mandatory": false,
          "name": "ECDOSTXT",
          "description": "Dose Description",
          "role": "Record Qualifier",
          "dataType": "text",
          "length": 100,
          "origin": {
            "type": "Collected",
            "source": "Investigator"
          }
        },
        {
          "OID": "IT.EC.ECDOSU",
          "mandatory": false,
          "name": "ECDOSU",
          "description": "Dose Units",
          "role": "Variable Qualifier",
          "dataType": "text",
          "length": 200,
          "origin": {
            "type": "Collected",
            "source": "Investigator"
          },
          "codeList": "CL.UNIT"
        },
        {
          "OID": "IT.EC.ECDOSFRM",
          "mandatory": false,
          "name": "ECDOSFRM",
          "description": "Dose Form",
          "role": "Variable Qualifier",
          "dataType": "text",
          "length": 200,
          "origin": {
            "type": "Collected",
            "source": "Investigator"
          },
          "codeList": "CL.FRM"
        },
        {
          "OID": "IT.EC.ECDOSFRQ",
          "mandatory": false,
          "name": "ECDOSFRQ",
          "description": "Dosing Frequency per Interval",
          "role": "Record Qualifier",
          "dataType": "text",
          "length": 200,
          "origin": {
            "type": "Collected",
            "source": "Investigator"
          },
          "codeList": "CL.FREQ"
        },
        {
          "OID": "IT.EC.ECDOSRGM",
          "mandatory": false,
          "name": "ECDOSRGM",
          "description": "Intended Dose Regimen",
          "role": "Record Qualifier",
          "dataType": "text",
          "length": null,
          "origin": {
            "type": "Collected",
            "source": "Investigator"
          }
        },
        {
          "OID": "IT.EC.ECROUTE",
          "mandatory": false,
          "name": "ECROUTE",
          "description": "Route of Administration",
          "role": "Variable Qualifier",
          "dataType": "text",
          "length": 200,
          "origin": {
            "type": "Collected",
            "source": "Investigator"
          },
          "codeList": "CL.ROUTE"
        },
        {
          "OID": "IT.EC.ECLOC",
          "mandatory": false,
          "name": "ECLOC",
          "description": "Location of Dose Administration",
          "role": "Record Qualifier",
          "dataType": "text",
          "length": 200,
          "origin": {
            "type": "Collected",
            "source": "Investigator"
          },
          "codeList": "CL.LOC"
        },
        {
          "OID": "IT.EC.ECLAT",
          "mandatory": false,
          "name": "ECLAT",
          "description": "Laterality",
          "role": "Variable Qualifier",
          "dataType": "text",
          "length": 200,
          "origin": {
            "type": "Collected",
            "source": "Investigator"
          },
          "codeList": "CL.LAT"
        },
        {
          "OID": "IT.EC.ECDIR",
          "mandatory": false,
          "name": "ECDIR",
          "description": "Directionality",
          "role": "Variable Qualifier",
          "dataType": "text",
          "length": null,
          "origin": {
            "type": "Collected",
            "source": "Investigator"
          },
          "codeList": "CL.DIR"
        },
        {
          "OID": "IT.EC.ECSTDTC",
          "mandatory": false,
          "name": "ECSTDTC",
          "description": "Start Date/Time of Treatment",
          "role": "Timing",
          "dataType": "datetime",
          "origin": {
            "type": "__PLACEHOLDER__",
            "source": "__PLACEHOLDER__"
          }
        },
        {
          "OID": "IT.EC.ECENDTC",
          "mandatory": false,
          "name": "ECENDTC",
          "description": "End Date/Time of Treatment",
          "role": "Timing",
          "dataType": "datetime",
          "origin": {
            "type": "__PLACEHOLDER__",
            "source": "__PLACEHOLDER__"
          }
        }
      ]
    },
    {
      "OID": "IG.AE",
      "name": "AE",
      "description": "Adverse Events",
      "domain": "AE",
      "purpose": "Tabulation",
      "structure": "One record per adverse event per subject",
      "isReferenceData": false,
      "keySequence": [
        "__PLACEHOLDER__"
      ],
      "standard": "STD.SDTMIG",
      "observationClass": {
        "name": "EVENTS"
      },
      "items": [
        {
          "OID": "IT.AE.STUDYID",
          "mandatory": true,
          "name": "STUDYID",
          "description": "Study Identifier",
          "role": "Identifier",
          "dataType": "text",
          "length": null,
          "origin": {
            "type": "__PLACEHOLDER__",
            "source": "__PLACEHOLDER__"
          }
        },
        {
          "OID": "IT.AE.DOMAIN",
          "mandatory": true,
          "name": "DOMAIN",
          "description": "Domain Abbreviation",
          "role": "Identifier",
          "dataType": "text",
          "length": null,
          "origin": {
            "type": "__PLACEHOLDER__",
            "source": "__PLACEHOLDER__"
          }
        },
        {
          "OID": "IT.AE.USUBJID",
          "mandatory": true,
          "name": "USUBJID",
          "description": "Unique Subject Identifier",
          "role": "Identifier",
          "dataType": "text",
          "length": null,
          "origin": {
            "type": "__PLACEHOLDER__",
            "source": "__PLACEHOLDER__"
          }
        },
        {
          "OID": "IT.AE.AESEQ",
          "mandatory": true,
          "name": "AESEQ",
          "description": "Sequence Number",
          "role": "Identifier",
          "dataType": "integer",
          "length": null,
          "origin": {
            "type": "__PLACEHOLDER__",
            "source": "__PLACEHOLDER__"
          }
        },
        {
          "OID": "IT.AE.AETERM",
          "mandatory": true,
          "name": "AETERM",
          "description": "Reported Term for the Adverse Event",
          "role": "Topic",
          "dataType": "text",
          "length": 200,
          "origin": {
            "type": "Collected",
            "source": "Investigator"
          }
        },
        {
          "OID": "IT.AE.AELLT",
          "mandatory": false,
          "name": "AELLT",
          "description": "Lowest Level Term",
          "role": "Variable Qualifier",
          "dataType": "text",
          "length": null,
          "origin": {
            "type": "__PLACEHOLDER__",
            "source": "__PLACEHOLDER__"
          }
        },
        {
          "OID": "IT.AE.AELLTCD",
          "mandatory": false,
          "name": "AELLTCD",
          "description": "Lowest Level Term Code",
          "role": "Variable Qualifier",
          "dataType": "integer",
          "length": null,
          "origin": {
            "type": "__PLACEHOLDER__",
            "source": "__PLACEHOLDER__"
          }
        },
        {
          "OID": "IT.AE.AEDECOD",
          "mandatory": true,
          "name": "AEDECOD",
          "description": "Dictionary-Derived Term",
          "role": "Synonym Qualifier",
          "dataType": "text",
          "length": 200,
          "origin": {
            "type": "Assigned",
            "source": "Sponsor"
          }
        },
        {
          "OID": "IT.AE.AEPTCD",
          "mandatory": false,
          "name": "AEPTCD",
          "description": "Preferred Term Code",
          "role": "Variable Qualifier",
          "dataType": "integer",
          "length": null,
          "origin": {
            "type": "__PLACEHOLDER__",
            "source": "__PLACEHOLDER__"
          }
        },
        {
          "OID": "IT.AE.AEHLT",
          "mandatory": false,
          "name": "AEHLT",
          "description": "High Level Term",
          "role": "Variable Qualifier",
          "dataType": "text",
          "length": null,
          "origin": {
            "type": "__PLACEHOLDER__",
            "source": "__PLACEHOLDER__"
          }
        },
        {
          "OID": "IT.AE.AEHLTCD",
          "mandatory": false,
          "name": "AEHLTCD",
          "description": "High Level Term Code",
          "role": "Variable Qualifier",
          "dataType": "integer",
          "length": null,
          "origin": {
            "type": "__PLACEHOLDER__",
            "source": "__PLACEHOLDER__"
          }
        },
        {
          "OID": "IT.AE.AEHLGT",
          "mandatory": false,
          "name": "AEHLGT",
          "description": "High Level Group Term",
          "role": "Variable Qualifier",
          "dataType": "text",
          "length": null,
          "origin": {
            "type": "__PLACEHOLDER__",
            "source": "__PLACEHOLDER__"
          }
        },
        {
          "OID": "IT.AE.AEHLGTCD",
          "mandatory": false,
          "name": "AEHLGTCD",
          "description": "High Level Group Term Code",
          "role": "Variable Qualifier",
          "dataType": "integer",
          "length": null,
          "origin": {
            "type": "__PLACEHOLDER__",
            "source": "__PLACEHOLDER__"
          }
        },
        {
          "OID": "IT.AE.AECAT",
          "mandatory": false,
          "name": "AECAT",
          "description": "Category for Adverse Event",
          "role": "Grouping Qualifier",
          "dataType": "text",
          "length": 200,
          "origin": {
            "type": "Assigned",
            "source": "Sponsor"
          }
        },
        {
          "OID": "IT.AE.AESCAT",
          "mandatory": false,
          "name": "AESCAT",
          "description": "Subcategory for Adverse Event",
          "role": "Grouping Qualifier",
          "dataType": "text",
          "length": 200,
          "origin": {
            "type": "Assigned",
            "source": "Sponsor"
          }
        },
        {
          "OID": "IT.AE.AEPRESP",
          "mandatory": false,
          "name": "AEPRESP",
          "description": "Pre-Specified Adverse Event",
          "role": "Variable Qualifier",
          "dataType": "text",
          "length": 1,
          "origin": {
            "type": "Assigned",
            "source": "Sponsor"
          },
          "codeList": "CL.NY_Y"
        },
        {
          "OID": "IT.AE.AEBODSYS",
          "mandatory": false,
          "name": "AEBODSYS",
          "description": "Body System or Organ Class",
          "role": "Record Qualifier",
          "dataType": "text",
          "length": null,
          "origin": {
            "type": "__PLACEHOLDER__",
            "source": "__PLACEHOLDER__"
          }
        },
        {
          "OID": "IT.AE.AEBDSYCD",
          "mandatory": false,
          "name": "AEBDSYCD",
          "description": "Body System or Organ Class Code",
          "role": "Variable Qualifier",
          "dataType": "integer",
          "length": null,
          "origin": {
            "type": "__PLACEHOLDER__",
            "source": "__PLACEHOLDER__"
          }
        },
        {
          "OID": "IT.AE.AESOC",
          "mandatory": false,
          "name": "AESOC",
          "description": "Primary System Organ Class",
          "role": "Variable Qualifier",
          "dataType": "text",
          "length": null,
          "origin": {
            "type": "__PLACEHOLDER__",
            "source": "__PLACEHOLDER__"
          }
        },
        {
          "OID": "IT.AE.AESOCCD",
          "mandatory": false,
          "name": "AESOCCD",
          "description": "Primary System Organ Class Code",
          "role": "Variable Qualifier",
          "dataType": "integer",
          "length": null,
          "origin": {
            "type": "__PLACEHOLDER__",
            "source": "__PLACEHOLDER__"
          }
        },
        {
          "OID": "IT.AE.AELOC",
          "mandatory": false,
          "name": "AELOC",
          "description": "Location of Event",
          "role": "Record Qualifier",
          "dataType": "text",
          "length": 200,
          "origin": {
            "type": "Collected",
            "source": "Investigator"
          },
          "codeList": "CL.LOC"
        },
        {
          "OID": "IT.AE.AESEV",
          "mandatory": false,
          "name": "AESEV",
          "description": "Severity/Intensity",
          "role": "Record Qualifier",
          "dataType": "text",
          "length": 20,
          "origin": {
            "type": "Collected",
            "source": "Investigator"
          },
          "codeList": "CL.AESEV"
        },
        {
          "OID": "IT.AE.AESER",
          "mandatory": false,
          "name": "AESER",
          "description": "Serious Event",
          "role": "Record Qualifier",
          "dataType": "text",
          "length": 1,
          "origin": {
            "type": "Collected",
            "source": "Investigator"
          },
          "codeList": "CL.NY_NY"
        },
        {
          "OID": "IT.AE.AEACN",
          "mandatory": false,
          "name": "AEACN",
          "description": "Action Taken with Study Treatment",
          "role": "Record Qualifier",
          "dataType": "text",
          "length": 200,
          "origin": {
            "type": "Collected",
            "source": "Investigator"
          },
          "codeList": "CL.ACN"
        },
        {
          "OID": "IT.AE.AEACNOTH",
          "mandatory": false,
          "name": "AEACNOTH",
          "description": "Other Action Taken",
          "role": "Record Qualifier",
          "dataType": "text",
          "length": 200,
          "origin": {
            "type": "Collected",
            "source": "Investigator"
          }
        },
        {
          "OID": "IT.AE.AEREL",
          "mandatory": false,
          "name": "AEREL",
          "description": "Causality",
          "role": "Record Qualifier",
          "dataType": "text",
          "length": 200,
          "origin": {
            "type": "Collected",
            "source": "Investigator"
          }
        },
        {
          "OID": "IT.AE.AERELNST",
          "mandatory": false,
          "name": "AERELNST",
          "description": "Relationship to Non-Study Treatment",
          "role": "Record Qualifier",
          "dataType": "text",
          "length": 200,
          "origin": {
            "type": "Collected",
            "source": "Investigator"
          }
        },
        {
          "OID": "IT.AE.AEPATT",
          "mandatory": false,
          "name": "AEPATT",
          "description": "Pattern of Adverse Event",
          "role": "Record Qualifier",
          "dataType": "text",
          "length": 200,
          "origin": {
            "type": "Collected",
            "source": "Investigator"
          }
        },
        {
          "OID": "IT.AE.AEOUT",
          "mandatory": false,
          "name": "AEOUT",
          "description": "Outcome of Adverse Event",
          "role": "Record Qualifier",
          "dataType": "text",
          "length": 200,
          "origin": {
            "type": "Collected",
            "source": "Investigator"
          },
          "codeList": "CL.OUT"
        },
        {
          "OID": "IT.AE.AESCAN",
          "mandatory": false,
          "name": "AESCAN",
          "description": "Involves Cancer",
          "role": "Record Qualifier",
          "dataType": "text",
          "length": 1,
          "origin": {
            "type": "Collected",
            "source": "Investigator"
          },
          "codeList": "CL.NY_NY"
        },
        {
          "OID": "IT.AE.AESCONG",
          "mandatory": false,
          "name": "AESCONG",
          "description": "Congenital Anomaly or Birth Defect",
          "role": "Record Qualifier",
          "dataType": "text",
          "length": 1,
          "origin": {
            "type": "Collected",
            "source": "Investigator"
          },
          "codeList": "CL.NY_NY"
        },
        {
          "OID": "IT.AE.AESDISAB",
          "mandatory": false,
          "name": "AESDISAB",
          "description": "Persist or Signif Disability/Incapacity",
          "role": "Record Qualifier",
          "dataType": "text",
          "length": 1,
          "origin": {
            "type": "Collected",
            "source": "Investigator"
          },
          "codeList": "CL.NY_NY"
        },
        {
          "OID": "IT.AE.AESDTH",
          "mandatory": false,
          "name": "AESDTH",
          "description": "Results in Death",
          "role": "Record Qualifier",
          "dataType": "text",
          "length": 1,
          "origin": {
            "type": "Collected",
            "source": "Investigator"
          },
          "codeList": "CL.NY_NY"
        },
        {
          "OID": "IT.AE.AESHOSP",
          "mandatory": false,
          "name": "AESHOSP",
          "description": "Requires or Prolongs Hospitalization",
          "role": "Record Qualifier",
          "dataType": "text",
          "length": 1,
          "origin": {
            "type": "Collected",
            "source": "Investigator"
          },
          "codeList": "CL.NY_NY"
        },
        {
          "OID": "IT.AE.AESLIFE",
          "mandatory": false,
          "name": "AESLIFE",
          "description": "Is Life Threatening",
          "role": "Record Qualifier",
          "dataType": "text",
          "length": 1,
          "origin": {
            "type": "Collected",
            "source": "Investigator"
          },
          "codeList": "CL.NY_NY"
        },
        {
          "OID": "IT.AE.AESOD",
          "mandatory": false,
          "name": "AESOD",
          "description": "Occurred with Overdose",
          "role": "Record Qualifier",
          "dataType": "text",
          "length": 1,
          "origin": {
            "type": "Collected",
            "source": "Investigator"
          },
          "codeList": "CL.NY_NY"
        },
        {
          "OID": "IT.AE.AESMIE",
          "mandatory": false,
          "name": "AESMIE",
          "description": "Other Medically Important Serious Event",
          "role": "Record Qualifier",
          "dataType": "text",
          "length": 1,
          "origin": {
            "type": "Collected",
            "source": "Investigator"
          },
          "codeList": "CL.NY_NY"
        },
        {
          "OID": "IT.AE.AECONTRT",
          "mandatory": false,
          "name": "AECONTRT",
          "description": "Concomitant or Additional Trtmnt Given",
          "role": "Record Qualifier",
          "dataType": "text",
          "length": 1,
          "origin": {
            "type": "Collected",
            "source": "Investigator"
          },
          "codeList": "CL.NY_NY"
        },
        {
          "OID": "IT.AE.AETOXGR",
          "mandatory": false,
          "name": "AETOXGR",
          "description": "Standard Toxicity Grade",
          "role": "Record Qualifier",
          "dataType": "text",
          "length": 1,
          "origin": {
            "type": "Collected",
            "source": "Investigator"
          }
        },
        {
          "OID": "IT.AE.AESTDTC",
          "mandatory": false,
          "name": "AESTDTC",
          "description": "Start Date/Time of Adverse Event",
          "role": "Timing",
          "dataType": "datetime",
          "origin": {
            "type": "Collected",
            "source": "Investigator"
          }
        },
        {
          "OID": "IT.AE.AEENDTC",
          "mandatory": false,
          "name": "AEENDTC",
          "description": "End Date/Time of Adverse Event",
          "role": "Timing",
          "dataType": "datetime",
          "origin": {
            "type": "Collected",
            "source": "Investigator"
          }
        },
        {
          "OID": "IT.AE.AEENRF",
          "mandatory": false,
          "name": "AEENRF",
          "description": "End Relative to Reference Period",
          "role": "Timing",
          "dataType": "text",
          "length": 20,
          "origin": {
            "type": "Assigned",
            "source": "Sponsor"
          },
          "codeList": "CL.STENRF"
        },
        {
          "OID": "IT.AE.AEENRTPT",
          "mandatory": false,
          "name": "AEENRTPT",
          "description": "End Relative to Reference Time Point",
          "role": "Timing",
          "dataType": "text",
          "length": 20,
          "origin": {
            "type": "Assigned",
            "source": "Sponsor"
          },
          "codeList": "CL.STENRF"
        },
        {
          "OID": "IT.AE.AEENTPT",
          "mandatory": false,
          "name": "AEENTPT",
          "description": "End Reference Time Point",
          "role": "Timing",
          "dataType": "text",
          "length": 20,
          "origin": {
            "type": "Assigned",
            "source": "Sponsor"
          }
        }
      ]
    },
    {
      "OID": "IG.TS",
      "name": "TS",
      "description": "Trial Summary",
      "domain": "TS",
      "purpose": "Tabulation",
      "structure": "One record per trial summary parameter value",
      "isReferenceData": true,
      "keySequence": [
        "__PLACEHOLDER__"
      ],
      "standard": "STD.SDTMIG",
      "observationClass": {
        "name": "TRIAL DESIGN"
      },
      "items": [
        {
          "OID": "IT.TS.STUDYID",
          "mandatory": true,
          "name": "STUDYID",
          "description": "Study Identifier",
          "role": "Identifier",
          "dataType": "text",
          "length": null,
          "origin": {
            "type": "__PLACEHOLDER__",
            "source": "__PLACEHOLDER__"
          }
        },
        {
          "OID": "IT.TS.DOMAIN",
          "mandatory": true,
          "name": "DOMAIN",
          "description": "Domain Abbreviation",
          "role": "Identifier",
          "dataType": "text",
          "length": null,
          "origin": {
            "type": "__PLACEHOLDER__",
            "source": "__PLACEHOLDER__"
          }
        },
        {
          "OID": "IT.TS.TSSEQ",
          "mandatory": true,
          "name": "TSSEQ",
          "description": "Sequence Number",
          "role": "Identifier",
          "dataType": "integer",
          "length": null,
          "origin": {
            "type": "__PLACEHOLDER__",
            "source": "__PLACEHOLDER__"
          }
        },
        {
          "OID": "IT.TS.TSPARMCD",
          "mandatory": true,
          "name": "TSPARMCD",
          "description": "Trial Summary Parameter Short Name",
          "role": "Topic",
          "dataType": "text",
          "length": null,
          "codeList": "CL.TSPARMCD"
        },
        {
          "OID": "IT.TS.TSPARM",
          "mandatory": true,
          "name": "TSPARM",
          "description": "Trial Summary Parameter",
          "role": "Synonym Qualifier",
          "dataType": "text",
          "length": null,
          "origin": {
            "type": "__PLACEHOLDER__",
            "source": "__PLACEHOLDER__"
          },
          "codeList": "CL.TSPARM"
        },
        {
          "OID": "IT.TS.TSVAL",
          "mandatory": false,
          "name": "TSVAL",
          "description": "Parameter Value",
          "role": "Result Qualifier",
          "dataType": "text",
          "length": null,
          "origin": {
            "type": "__PLACEHOLDER__",
            "source": "__PLACEHOLDER__"
          }
        },
        {
          "OID": "IT.TS.TSVALCD",
          "mandatory": false,
          "name": "TSVALCD",
          "description": "Parameter Value Code",
          "role": "Result Qualifier",
          "dataType": "text",
          "length": null,
          "origin": {
            "type": "__PLACEHOLDER__",
            "source": "__PLACEHOLDER__"
          }
        },
        {
          "OID": "IT.TS.TSVCDREF",
          "mandatory": false,
          "name": "TSVCDREF",
          "description": "Name of the Reference Terminology",
          "role": "Result Qualifier",
          "dataType": "text",
          "length": null,
          "origin": {
            "type": "__PLACEHOLDER__",
            "source": "__PLACEHOLDER__"
          },
          "codeList": "CL.DICTNAM"
        },
        {
          "OID": "IT.TS.TSVCDVER",
          "mandatory": false,
          "name": "TSVCDVER",
          "description": "Version of the Reference Terminology",
          "role": "Result Qualifier",
          "dataType": "text",
          "length": null,
          "origin": {
            "type": "__PLACEHOLDER__",
            "source": "__PLACEHOLDER__"
          }
        }
      ],
      "slices": [
        {
          "OID": "VL.TS.TSPARMCD",
          "name": "VL_TS_TSPARMCD",
          "type": "ValueList",
          "wasDerivedFrom": "IT.TS.TSPARMCD",
          "items": [
            {
              "OID": "IT.TS.TSPARMCD.ADAPT",
              "mandatory": false,
              "name": "TSPARMCD",
              "dataType": "text",
              "length": 1,
              "origin": {
                "type": "Protocol",
                "source": "Sponsor"
              },
              "applicableWhen": [
                "WC.TS.08ebd0ce"
              ]
            },
            {
              "OID": "IT.TS.TSPARMCD.AGEMIN",
              "mandatory": false,
              "name": "TSPARMCD",
              "dataType": "text",
              "length": 200,
              "origin": {
                "type": "Protocol",
                "source": "Sponsor"
              },
              "applicableWhen": [
                "WC.TS.a7d24f4a"
              ]
            },
            {
              "OID": "IT.TS.TSPARMCD.AGEMAX",
              "mandatory": false,
              "name": "TSPARMCD",
              "dataType": "text",
              "length": 200,
              "origin": {
                "type": "Protocol",
                "source": "Sponsor"
              },
              "applicableWhen": [
                "WC.TS.4ac86c98"
              ]
            },
            {
              "OID": "IT.TS.TSPARMCD.COMPTRT",
              "mandatory": false,
              "name": "TSPARMCD",
              "dataType": "text",
              "length": 200,
              "origin": {
                "type": "Protocol",
                "source": "Sponsor"
              },
              "applicableWhen": [
                "WC.TS.54cd02f1"
              ]
            },
            {
              "OID": "IT.TS.TSPARMCD.CRMDUR",
              "mandatory": false,
              "name": "TSPARMCD",
              "dataType": "text",
              "length": 200,
              "origin": {
                "type": "Protocol",
                "source": "Sponsor"
              },
              "applicableWhen": [
                "WC.TS.f9fa8745"
              ]
            },
            {
              "OID": "IT.TS.TSPARMCD.DOSE",
              "mandatory": false,
              "name": "TSPARMCD",
              "dataType": "text",
              "length": 200,
              "origin": {
                "type": "Protocol",
                "source": "Sponsor"
              },
              "applicableWhen": [
                "WC.TS.7fc6c3e6"
              ]
            },
            {
              "OID": "IT.TS.TSPARMCD.DOSFRQ",
              "mandatory": false,
              "name": "TSPARMCD",
              "dataType": "text",
              "length": 200,
              "origin": {
                "type": "Protocol",
                "source": "Sponsor"
              },
              "applicableWhen": [
                "WC.TS.5cd14c68"
              ]
            },
            {
              "OID": "IT.TS.TSPARMCD.DOSU",
              "mandatory": false,
              "name": "TSPARMCD",
              "dataType": "text",
              "length": 200,
              "origin": {
                "type": "Protocol",
                "source": "Sponsor"
              },
              "applicableWhen": [
                "WC.TS.4053f56c"
              ]
            },
            {
              "OID": "IT.TS.TSPARMCD.INDIC",
              "mandatory": false,
              "name": "TSPARMCD",
              "dataType": "text",
              "length": 200,
              "origin": {
                "type": "Protocol",
                "source": "Sponsor"
              },
              "applicableWhen": [
                "WC.TS.9cdae039"
              ]
            },
            {
              "OID": "IT.TS.TSPARMCD.INTMODEL",
              "mandatory": false,
              "name": "TSPARMCD",
              "dataType": "text",
              "length": 200,
              "origin": {
                "type": "Protocol",
                "source": "Sponsor"
              },
              "applicableWhen": [
                "WC.TS.2c83b5d9"
              ]
            },
            {
              "OID": "IT.TS.TSPARMCD.INTTYPE",
              "mandatory": false,
              "name": "TSPARMCD",
              "dataType": "text",
              "length": 200,
              "origin": {
                "type": "Protocol",
                "source": "Sponsor"
              },
              "applicableWhen": [
                "WC.TS.e3ae16cd"
              ]
            },
            {
              "OID": "IT.TS.TSPARMCD.NARMS",
              "mandatory": false,
              "name": "TSPARMCD",
              "dataType": "text",
              "length": 200,
              "origin": {
                "type": "Protocol",
                "source": "Sponsor"
              },
              "applicableWhen": [
                "WC.TS.89c0d243"
              ]
            },
            {
              "OID": "IT.TS.TSPARMCD.OBJPRIM",
              "mandatory": false,
              "name": "TSPARMCD",
              "dataType": "text",
              "length": 200,
              "origin": {
                "type": "Protocol",
                "source": "Sponsor"
              },
              "applicableWhen": [
                "WC.TS.7a056c75"
              ]
            },
            {
              "OID": "IT.TS.TSPARMCD.OBJSEC",
              "mandatory": false,
              "name": "TSPARMCD",
              "dataType": "text",
              "length": 200,
              "origin": {
                "type": "Protocol",
                "source": "Sponsor"
              },
              "applicableWhen": [
                "WC.TS.36721696"
              ]
            },
            {
              "OID": "IT.TS.TSPARMCD.OUTMSPRI",
              "mandatory": false,
              "name": "TSPARMCD",
              "dataType": "text",
              "length": 200,
              "origin": {
                "type": "Protocol",
                "source": "Sponsor"
              },
              "applicableWhen": [
                "WC.TS.d8b84608"
              ]
            },
            {
              "OID": "IT.TS.TSPARMCD.OUTMSSEC",
              "mandatory": false,
              "name": "TSPARMCD",
              "dataType": "text",
              "length": 200,
              "origin": {
                "type": "Protocol",
                "source": "Sponsor"
              },
              "applicableWhen": [
                "WC.TS.1d3cd461"
              ]
            },
            {
              "OID": "IT.TS.TSPARMCD.PLANSUB",
              "mandatory": false,
              "name": "TSPARMCD",
              "dataType": "text",
              "length": 200,
              "origin": {
                "type": "Protocol",
                "source": "Sponsor"
              },
              "applicableWhen": [
                "WC.TS.3a1c5c3c"
              ]
            },
            {
              "OID": "IT.TS.TSPARMCD.PTRTDUR",
              "mandatory": false,
              "name": "TSPARMCD",
              "dataType": "text",
              "length": 200,
              "origin": {
                "type": "Protocol",
                "source": "Sponsor"
              },
              "applicableWhen": [
                "WC.TS.2b2d70bc"
              ]
            },
            {
              "OID": "IT.TS.TSPARMCD.ROUTE",
              "mandatory": false,
              "name": "TSPARMCD",
              "dataType": "text",
              "length": 200,
              "origin": {
                "type": "Protocol",
                "source": "Sponsor"
              },
              "applicableWhen": [
                "WC.TS.3c4a8bf2"
              ]
            },
            {
              "OID": "IT.TS.TSPARMCD.SEXPOP",
              "mandatory": false,
              "name": "TSPARMCD",
              "dataType": "text",
              "length": 200,
              "origin": {
                "type": "Protocol",
                "source": "Sponsor"
              },
              "applicableWhen": [
                "WC.TS.4f0c74c2"
              ]
            },
            {
              "OID": "IT.TS.TSPARMCD.SPONSOR",
              "mandatory": false,
              "name": "TSPARMCD",
              "dataType": "text",
              "length": 200,
              "origin": {
                "type": "Protocol",
                "source": "Sponsor"
              },
              "applicableWhen": [
                "WC.TS.51236927"
              ]
            },
            {
              "OID": "IT.TS.TSPARMCD.STYPE",
              "mandatory": false,
              "name": "TSPARMCD",
              "dataType": "text",
              "length": 200,
              "origin": {
                "type": "Protocol",
                "source": "Sponsor"
              },
              "applicableWhen": [
                "WC.TS.f4cb41bb"
              ]
            },
            {
              "OID": "IT.TS.TSPARMCD.TBLIND",
              "mandatory": false,
              "name": "TSPARMCD",
              "dataType": "text",
              "length": 200,
              "origin": {
                "type": "Protocol",
                "source": "Sponsor"
              },
              "applicableWhen": [
                "WC.TS.9e101607"
              ]
            },
            {
              "OID": "IT.TS.TSPARMCD.THERAREA",
              "mandatory": false,
              "name": "TSPARMCD",
              "dataType": "text",
              "length": 200,
              "origin": {
                "type": "Protocol",
                "source": "Sponsor"
              },
              "applicableWhen": [
                "WC.TS.d8c1ac4c"
              ]
            },
            {
              "OID": "IT.TS.TSPARMCD.TINDTP",
              "mandatory": false,
              "name": "TSPARMCD",
              "dataType": "text",
              "length": 200,
              "origin": {
                "type": "Protocol",
                "source": "Sponsor"
              },
              "applicableWhen": [
                "WC.TS.e423672b"
              ]
            },
            {
              "OID": "IT.TS.TSPARMCD.TITLE",
              "mandatory": false,
              "name": "TSPARMCD",
              "dataType": "text",
              "length": 200,
              "origin": {
                "type": "Protocol",
                "source": "Sponsor"
              },
              "applicableWhen": [
                "WC.TS.43684533"
              ]
            },
            {
              "OID": "IT.TS.TSPARMCD.TPHASE",
              "mandatory": false,
              "name": "TSPARMCD",
              "dataType": "text",
              "length": 200,
              "origin": {
                "type": "Protocol",
                "source": "Sponsor"
              },
              "applicableWhen": [
                "WC.TS.22640600"
              ]
            },
            {
              "OID": "IT.TS.TSPARMCD.TRT",
              "mandatory": false,
              "name": "TSPARMCD",
              "dataType": "text",
              "length": 200,
              "origin": {
                "type": "Protocol",
                "source": "Sponsor"
              },
              "applicableWhen": [
                "WC.TS.1948fed3"
              ]
            },
            {
              "OID": "IT.TS.TSPARMCD.TTYPE",
              "mandatory": false,
              "name": "TSPARMCD",
              "dataType": "text",
              "length": 200,
              "origin": {
                "type": "Protocol",
                "source": "Sponsor"
              },
              "applicableWhen": [
                "WC.TS.29af0670"
              ]
            }
          ]
        }
      ]
    },
    {
      "OID": "IG.TA",
      "name": "TA",
      "description": "Trial Arms",
      "domain": "TA",
      "purpose": "Tabulation",
      "structure": "One record per planned Element per Arm",
      "isReferenceData": true,
      "keySequence": [
        "__PLACEHOLDER__"
      ],
      "standard": "STD.SDTMIG",
      "observationClass": {
        "name": "TRIAL DESIGN"
      },
      "items": [
        {
          "OID": "IT.TA.STUDYID",
          "mandatory": true,
          "name": "STUDYID",
          "description": "Study Identifier",
          "role": "Identifier",
          "dataType": "text",
          "length": null,
          "origin": {
            "type": "__PLACEHOLDER__",
            "source": "__PLACEHOLDER__"
          }
        },
        {
          "OID": "IT.TA.DOMAIN",
          "mandatory": true,
          "name": "DOMAIN",
          "description": "Domain Abbreviation",
          "role": "Identifier",
          "dataType": "text",
          "length": null,
          "origin": {
            "type": "__PLACEHOLDER__",
            "source": "__PLACEHOLDER__"
          }
        },
        {
          "OID": "IT.TA.ARMCD",
          "mandatory": true,
          "name": "ARMCD",
          "description": "Planned Arm Code",
          "role": "Topic",
          "dataType": "text",
          "length": null,
          "origin": {
            "type": "__PLACEHOLDER__",
            "source": "__PLACEHOLDER__"
          },
          "codeList": "CL.ARMCD"
        },
        {
          "OID": "IT.TA.ARM",
          "mandatory": true,
          "name": "ARM",
          "description": "Description of Planned Arm",
          "role": "Synonym Qualifier",
          "dataType": "text",
          "length": null,
          "origin": {
            "type": "__PLACEHOLDER__",
            "source": "__PLACEHOLDER__"
          },
          "codeList": "CL.ARM"
        },
        {
          "OID": "IT.TA.TAETORD",
          "mandatory": true,
          "name": "TAETORD",
          "description": "Planned Order of Element within Arm",
          "role": "Timing",
          "dataType": "integer",
          "length": null,
          "origin": {
            "type": "__PLACEHOLDER__",
            "source": "__PLACEHOLDER__"
          }
        },
        {
          "OID": "IT.TA.ETCD",
          "mandatory": true,
          "name": "ETCD",
          "description": "Element Code",
          "role": "Record Qualifier",
          "dataType": "text",
          "length": null,
          "origin": {
            "type": "__PLACEHOLDER__",
            "source": "__PLACEHOLDER__"
          },
          "codeList": "CL.ETCD"
        },
        {
          "OID": "IT.TA.ELEMENT",
          "mandatory": false,
          "name": "ELEMENT",
          "description": "Description of Element",
          "role": "Synonym Qualifier",
          "dataType": "text",
          "length": null,
          "origin": {
            "type": "__PLACEHOLDER__",
            "source": "__PLACEHOLDER__"
          },
          "codeList": "CL.ELEMENT"
        },
        {
          "OID": "IT.TA.TABRANCH",
          "mandatory": false,
          "name": "TABRANCH",
          "description": "Branch",
          "role": "Rule",
          "dataType": "text",
          "length": null,
          "origin": {
            "type": "__PLACEHOLDER__",
            "source": "__PLACEHOLDER__"
          }
        },
        {
          "OID": "IT.TA.TATRANS",
          "mandatory": false,
          "name": "TATRANS",
          "description": "Transition Rule",
          "role": "Rule",
          "dataType": "text",
          "length": null,
          "origin": {
            "type": "__PLACEHOLDER__",
            "source": "__PLACEHOLDER__"
          }
        },
        {
          "OID": "IT.TA.EPOCH",
          "mandatory": true,
          "name": "EPOCH",
          "description": "Epoch",
          "role": "Timing",
          "dataType": "text",
          "length": null,
          "origin": {
            "type": "__PLACEHOLDER__",
            "source": "__PLACEHOLDER__"
          },
          "codeList": "CL.EPOCH"
        }
      ]
    },
    {
      "OID": "IG.TE",
      "name": "TE",
      "description": "Trial Elements",
      "domain": "TE",
      "purpose": "Tabulation",
      "structure": "One record per planned Element",
      "isReferenceData": true,
      "keySequence": [
        "__PLACEHOLDER__"
      ],
      "standard": "STD.SDTMIG",
      "observationClass": {
        "name": "TRIAL DESIGN"
      },
      "items": [
        {
          "OID": "IT.TE.STUDYID",
          "mandatory": true,
          "name": "STUDYID",
          "description": "Study Identifier",
          "role": "Identifier",
          "dataType": "text",
          "length": null,
          "origin": {
            "type": "__PLACEHOLDER__",
            "source": "__PLACEHOLDER__"
          }
        },
        {
          "OID": "IT.TE.DOMAIN",
          "mandatory": true,
          "name": "DOMAIN",
          "description": "Domain Abbreviation",
          "role": "Identifier",
          "dataType": "text",
          "length": null,
          "origin": {
            "type": "__PLACEHOLDER__",
            "source": "__PLACEHOLDER__"
          }
        },
        {
          "OID": "IT.TE.ETCD",
          "mandatory": true,
          "name": "ETCD",
          "description": "Element Code",
          "role": "Topic",
          "dataType": "text",
          "length": null,
          "origin": {
            "type": "__PLACEHOLDER__",
            "source": "__PLACEHOLDER__"
          },
          "codeList": "CL.ETCD"
        },
        {
          "OID": "IT.TE.ELEMENT",
          "mandatory": true,
          "name": "ELEMENT",
          "description": "Description of Element",
          "role": "Synonym Qualifier",
          "dataType": "text",
          "length": null,
          "origin": {
            "type": "__PLACEHOLDER__",
            "source": "__PLACEHOLDER__"
          },
          "codeList": "CL.ELEMENT"
        },
        {
          "OID": "IT.TE.TESTRL",
          "mandatory": true,
          "name": "TESTRL",
          "description": "Rule for Start of Element",
          "role": "Rule",
          "dataType": "text",
          "length": null,
          "origin": {
            "type": "__PLACEHOLDER__",
            "source": "__PLACEHOLDER__"
          }
        }
      ]
    },
    {
      "OID": "IG.TI",
      "name": "TI",
      "description": "Trial Inclusion/Exclusion Criteria",
      "domain": "TI",
      "purpose": "Tabulation",
      "structure": "One record per I/E criterion",
      "isReferenceData": true,
      "keySequence": [
        "__PLACEHOLDER__"
      ],
      "standard": "STD.SDTMIG",
      "observationClass": {
        "name": "TRIAL DESIGN"
      },
      "items": [
        {
          "OID": "IT.TI.STUDYID",
          "mandatory": true,
          "name": "STUDYID",
          "description": "Study Identifier",
          "role": "Identifier",
          "dataType": "text",
          "length": null,
          "origin": {
            "type": "__PLACEHOLDER__",
            "source": "__PLACEHOLDER__"
          }
        },
        {
          "OID": "IT.TI.DOMAIN",
          "mandatory": true,
          "name": "DOMAIN",
          "description": "Domain Abbreviation",
          "role": "Identifier",
          "dataType": "text",
          "length": null,
          "origin": {
            "type": "__PLACEHOLDER__",
            "source": "__PLACEHOLDER__"
          }
        },
        {
          "OID": "IT.TI.IETESTCD",
          "mandatory": true,
          "name": "IETESTCD",
          "description": "Incl/Excl Criterion Short Name",
          "role": "Topic",
          "dataType": "text",
          "length": null,
          "origin": {
            "type": "__PLACEHOLDER__",
            "source": "__PLACEHOLDER__"
          },
          "codeList": "CL.IETESTCD"
        },
        {
          "OID": "IT.TI.IETEST",
          "mandatory": true,
          "name": "IETEST",
          "description": "Inclusion/Exclusion Criterion",
          "role": "Synonym Qualifier",
          "dataType": "text",
          "length": null,
          "origin": {
            "type": "__PLACEHOLDER__",
            "source": "__PLACEHOLDER__"
          },
          "codeList": "CL.IETEST"
        },
        {
          "OID": "IT.TI.IECAT",
          "mandatory": true,
          "name": "IECAT",
          "description": "Inclusion/Exclusion Category",
          "role": "Grouping Qualifier",
          "dataType": "text",
          "length": null,
          "origin": {
            "type": "__PLACEHOLDER__",
            "source": "__PLACEHOLDER__"
          },
          "codeList": "CL.IECAT"
        }
      ]
    },
    {
      "OID": "IG.TV",
      "name": "TV",
      "description": "Trial Visits",
      "domain": "TV",
      "purpose": "Tabulation",
      "structure": "One record per planned Visit per Arm",
      "isReferenceData": true,
      "keySequence": [
        "__PLACEHOLDER__"
      ],
      "standard": "STD.SDTMIG",
      "observationClass": {
        "name": "TRIAL DESIGN"
      },
      "items": [
        {
          "OID": "IT.TV.STUDYID",
          "mandatory": true,
          "name": "STUDYID",
          "description": "Study Identifier",
          "role": "Identifier",
          "dataType": "text",
          "length": null,
          "origin": {
            "type": "__PLACEHOLDER__",
            "source": "__PLACEHOLDER__"
          }
        },
        {
          "OID": "IT.TV.DOMAIN",
          "mandatory": true,
          "name": "DOMAIN",
          "description": "Domain Abbreviation",
          "role": "Identifier",
          "dataType": "text",
          "length": null,
          "origin": {
            "type": "__PLACEHOLDER__",
            "source": "__PLACEHOLDER__"
          }
        },
        {
          "OID": "IT.TV.VISITNUM",
          "mandatory": true,
          "name": "VISITNUM",
          "description": "Visit Number",
          "role": "Topic",
          "dataType": "integer",
          "length": null,
          "origin": {
            "type": "__PLACEHOLDER__",
            "source": "__PLACEHOLDER__"
          }
        },
        {
          "OID": "IT.TV.VISIT",
          "mandatory": true,
          "name": "VISIT",
          "description": "Visit Name",
          "role": "Synonym Qualifier",
          "dataType": "text",
          "length": null,
          "origin": {
            "type": "__PLACEHOLDER__",
            "source": "__PLACEHOLDER__"
          }
        },
        {
          "OID": "IT.TV.VISITDY",
          "mandatory": false,
          "name": "VISITDY",
          "description": "Planned Study Day of Visit",
          "role": "Timing",
          "dataType": "integer",
          "length": null,
          "origin": {
            "type": "__PLACEHOLDER__",
            "source": "__PLACEHOLDER__"
          }
        },
        {
          "OID": "IT.TV.ARMCD",
          "mandatory": false,
          "name": "ARMCD",
          "description": "Planned Arm Code",
          "role": "Record Qualifier",
          "dataType": "text",
          "length": null,
          "origin": {
            "type": "__PLACEHOLDER__",
            "source": "__PLACEHOLDER__"
          },
          "codeList": "CL.ARMCD"
        },
        {
          "OID": "IT.TV.ARM",
          "mandatory": false,
          "name": "ARM",
          "description": "Description of Planned Arm",
          "role": "Synonym Qualifier",
          "dataType": "text",
          "length": null,
          "origin": {
            "type": "__PLACEHOLDER__",
            "source": "__PLACEHOLDER__"
          },
          "codeList": "CL.ARM"
        },
        {
          "OID": "IT.TV.TVSTRL",
          "mandatory": true,
          "name": "TVSTRL",
          "description": "Visit Start Rule",
          "role": "Rule",
          "dataType": "text",
          "length": null,
          "origin": {
            "type": "__PLACEHOLDER__",
            "source": "__PLACEHOLDER__"
          }
        },
        {
          "OID": "IT.TV.TVENRL",
          "mandatory": false,
          "name": "TVENRL",
          "description": "Visit End Rule",
          "role": "Rule",
          "dataType": "text",
          "length": null,
          "origin": {
            "type": "__PLACEHOLDER__",
            "source": "__PLACEHOLDER__"
          }
        }
      ]
    },
    {
      "OID": "IG.SV",
      "name": "SV",
      "description": "Subject Visits",
      "domain": "SV",
      "purpose": "Tabulation",
      "structure": "One record per actual or planned visit per subject",
      "isReferenceData": false,
      "keySequence": [
        "__PLACEHOLDER__"
      ],
      "standard": "STD.SDTMIG",
      "observationClass": {
        "name": "SPECIAL-PURPOSE"
      },
      "items": [
        {
          "OID": "IT.SV.STUDYID",
          "mandatory": true,
          "name": "STUDYID",
          "description": "Study Identifier",
          "role": "Identifier",
          "dataType": "text",
          "length": null,
          "origin": {
            "type": "__PLACEHOLDER__",
            "source": "__PLACEHOLDER__"
          }
        },
        {
          "OID": "IT.SV.DOMAIN",
          "mandatory": true,
          "name": "DOMAIN",
          "description": "Domain Abbreviation",
          "role": "Identifier",
          "dataType": "text",
          "length": null,
          "origin": {
            "type": "__PLACEHOLDER__",
            "source": "__PLACEHOLDER__"
          }
        },
        {
          "OID": "IT.SV.USUBJID",
          "mandatory": true,
          "name": "USUBJID",
          "description": "Unique Subject Identifier",
          "role": "Identifier",
          "dataType": "text",
          "length": null,
          "origin": {
            "type": "__PLACEHOLDER__",
            "source": "__PLACEHOLDER__"
          }
        },
        {
          "OID": "IT.SV.VISITNUM",
          "mandatory": true,
          "name": "VISITNUM",
          "description": "Visit Number",
          "role": "Topic",
          "dataType": "integer",
          "length": null,
          "origin": {
            "type": "__PLACEHOLDER__",
            "source": "__PLACEHOLDER__"
          }
        },
        {
          "OID": "IT.SV.VISIT",
          "mandatory": false,
          "name": "VISIT",
          "description": "Visit Name",
          "role": "Synonym Qualifier",
          "dataType": "text",
          "length": null,
          "origin": {
            "type": "__PLACEHOLDER__",
            "source": "__PLACEHOLDER__"
          }
        },
        {
          "OID": "IT.SV.SVPRESP",
          "mandatory": false,
          "name": "SVPRESP",
          "description": "Pre-specified",
          "role": "Variable Qualifier",
          "dataType": "text",
          "length": null,
          "origin": {
            "type": "__PLACEHOLDER__",
            "source": "__PLACEHOLDER__"
          },
          "codeList": "CL.NY"
        },
        {
          "OID": "IT.SV.SVOCCUR",
          "mandatory": false,
          "name": "SVOCCUR",
          "description": "Occurrence",
          "role": "Record Qualifier",
          "dataType": "text",
          "length": null,
          "origin": {
            "type": "__PLACEHOLDER__",
            "source": "__PLACEHOLDER__"
          },
          "codeList": "CL.NY"
        },
        {
          "OID": "IT.SV.SVCNTMOD",
          "mandatory": false,
          "name": "SVCNTMOD",
          "description": "Contact Mode",
          "role": "Record Qualifier",
          "dataType": "text",
          "length": null,
          "origin": {
            "type": "__PLACEHOLDER__",
            "source": "__PLACEHOLDER__"
          },
          "codeList": "CL.CNTMODE"
        },
        {
          "OID": "IT.SV.SVSTDTC",
          "mandatory": false,
          "name": "SVSTDTC",
          "description": "Start Date/Time of Observation",
          "role": "Timing",
          "dataType": "datetime",
          "origin": {
            "type": "__PLACEHOLDER__",
            "source": "__PLACEHOLDER__"
          }
        },
        {
          "OID": "IT.SV.SVENDTC",
          "mandatory": false,
          "name": "SVENDTC",
          "description": "End Date/Time of Observation",
          "role": "Timing",
          "dataType": "datetime",
          "origin": {
            "type": "__PLACEHOLDER__",
            "source": "__PLACEHOLDER__"
          }
        }
      ]
    },
    {
      "OID": "IG.IE",
      "name": "IE",
      "description": "Inclusion/Exclusion Criteria Not Met",
      "domain": "IE",
      "purpose": "Tabulation",
      "structure": "One record per inclusion/exclusion criterion not met per subject",
      "isReferenceData": false,
      "keySequence": [
        "__PLACEHOLDER__"
      ],
      "standard": "STD.SDTMIG",
      "observationClass": {
        "name": "FINDINGS"
      },
      "items": [
        {
          "OID": "IT.IE.STUDYID",
          "mandatory": true,
          "name": "STUDYID",
          "description": "Study Identifier",
          "role": "Identifier",
          "dataType": "text",
          "length": null,
          "origin": {
            "type": "__PLACEHOLDER__",
            "source": "__PLACEHOLDER__"
          }
        },
        {
          "OID": "IT.IE.DOMAIN",
          "mandatory": true,
          "name": "DOMAIN",
          "description": "Domain Abbreviation",
          "role": "Identifier",
          "dataType": "text",
          "length": null,
          "origin": {
            "type": "__PLACEHOLDER__",
            "source": "__PLACEHOLDER__"
          }
        },
        {
          "OID": "IT.IE.USUBJID",
          "mandatory": true,
          "name": "USUBJID",
          "description": "Unique Subject Identifier",
          "role": "Identifier",
          "dataType": "text",
          "length": null,
          "origin": {
            "type": "__PLACEHOLDER__",
            "source": "__PLACEHOLDER__"
          }
        },
        {
          "OID": "IT.IE.IESEQ",
          "mandatory": true,
          "name": "IESEQ",
          "description": "Sequence Number",
          "role": "Identifier",
          "dataType": "integer",
          "length": null,
          "origin": {
            "type": "__PLACEHOLDER__",
            "source": "__PLACEHOLDER__"
          }
        },
        {
          "OID": "IT.IE.IETESTCD",
          "mandatory": true,
          "name": "IETESTCD",
          "description": "Inclusion/Exclusion Criterion Short Name",
          "role": "Topic",
          "dataType": "text",
          "length": null,
          "origin": {
            "type": "__PLACEHOLDER__",
            "source": "__PLACEHOLDER__"
          },
          "codeList": "CL.IETESTCD"
        },
        {
          "OID": "IT.IE.IETEST",
          "mandatory": true,
          "name": "IETEST",
          "description": "Inclusion/Exclusion Criterion",
          "role": "Synonym Qualifier",
          "dataType": "text",
          "length": null,
          "origin": {
            "type": "__PLACEHOLDER__",
            "source": "__PLACEHOLDER__"
          },
          "codeList": "CL.IETEST"
        },
        {
          "OID": "IT.IE.IECAT",
          "mandatory": true,
          "name": "IECAT",
          "description": "Inclusion/Exclusion Category",
          "role": "Grouping Qualifier",
          "dataType": "text",
          "length": null,
          "origin": {
            "type": "__PLACEHOLDER__",
            "source": "__PLACEHOLDER__"
          },
          "codeList": "CL.IECAT"
        },
        {
          "OID": "IT.IE.IEORRES",
          "mandatory": true,
          "name": "IEORRES",
          "description": "I/E Criterion Original Result",
          "role": "Result Qualifier",
          "dataType": "text",
          "length": null,
          "codeList": "CL.NY"
        },
        {
          "OID": "IT.IE.IESTRESC",
          "mandatory": true,
          "name": "IESTRESC",
          "description": "I/E Criterion Result in Std Format",
          "role": "Result Qualifier",
          "dataType": "text",
          "length": null,
          "origin": {
            "type": "__PLACEHOLDER__",
            "source": "__PLACEHOLDER__"
          },
          "codeList": "CL.NY"
        }
      ],
      "slices": [
        {
          "OID": "VL.IE.IEORRES",
          "name": "VL_IE_IEORRES",
          "type": "ValueList",
          "wasDerivedFrom": "IT.IE.IEORRES",
          "items": [
            {
              "OID": "IT.IE.IEORRES.IN01",
              "mandatory": false,
              "name": "IEORRES",
              "dataType": "text",
              "length": 1,
              "origin": {
                "type": "Collected",
                "source": "Investigator"
              },
              "applicableWhen": [
                "WC.IE.1d2bb25f"
              ]
            },
            {
              "OID": "IT.IE.IEORRES.IN02",
              "mandatory": false,
              "name": "IEORRES",
              "dataType": "text",
              "length": 1,
              "origin": {
                "type": "Collected",
                "source": "Investigator"
              },
              "applicableWhen": [
                "WC.IE.fa688bf3"
              ]
            },
            {
              "OID": "IT.IE.IEORRES.IN03",
              "mandatory": false,
              "name": "IEORRES",
              "dataType": "text",
              "length": 1,
              "origin": {
                "type": "Collected",
                "source": "Investigator"
              },
              "applicableWhen": [
                "WC.IE.f276b607"
              ]
            },
            {
              "OID": "IT.IE.IEORRES.IN04",
              "mandatory": false,
              "name": "IEORRES",
              "dataType": "text",
              "length": 1,
              "origin": {
                "type": "Collected",
                "source": "Investigator"
              },
              "applicableWhen": [
                "WC.IE.cd528448"
              ]
            },
            {
              "OID": "IT.IE.IEORRES.IN05",
              "mandatory": false,
              "name": "IEORRES",
              "dataType": "text",
              "length": 1,
              "origin": {
                "type": "Collected",
                "source": "Investigator"
              },
              "applicableWhen": [
                "WC.IE.c1db3fd3"
              ]
            },
            {
              "OID": "IT.IE.IEORRES.IN06",
              "mandatory": false,
              "name": "IEORRES",
              "dataType": "text",
              "length": 1,
              "origin": {
                "type": "Collected",
                "source": "Investigator"
              },
              "applicableWhen": [
                "WC.IE.c2ec614b"
              ]
            },
            {
              "OID": "IT.IE.IEORRES.IN07",
              "mandatory": false,
              "name": "IEORRES",
              "dataType": "text",
              "length": 1,
              "origin": {
                "type": "Collected",
                "source": "Investigator"
              },
              "applicableWhen": [
                "WC.IE.2ef341aa"
              ]
            },
            {
              "OID": "IT.IE.IEORRES.IN08",
              "mandatory": false,
              "name": "IEORRES",
              "dataType": "text",
              "length": 1,
              "origin": {
                "type": "Collected",
                "source": "Investigator"
              },
              "applicableWhen": [
                "WC.IE.5d85184b"
              ]
            },
            {
              "OID": "IT.IE.IEORRES.EX01",
              "mandatory": false,
              "name": "IEORRES",
              "dataType": "text",
              "length": 1,
              "origin": {
                "type": "Collected",
                "source": "Investigator"
              },
              "applicableWhen": [
                "WC.IE.8579104c"
              ]
            },
            {
              "OID": "IT.IE.IEORRES.EX02",
              "mandatory": false,
              "name": "IEORRES",
              "dataType": "text",
              "length": 1,
              "origin": {
                "type": "Collected",
                "source": "Investigator"
              },
              "applicableWhen": [
                "WC.IE.74eacc45"
              ]
            },
            {
              "OID": "IT.IE.IEORRES.EX03",
              "mandatory": false,
              "name": "IEORRES",
              "dataType": "text",
              "length": 1,
              "origin": {
                "type": "Collected",
                "source": "Investigator"
              },
              "applicableWhen": [
                "WC.IE.ce0e8d09"
              ]
            },
            {
              "OID": "IT.IE.IEORRES.EX04",
              "mandatory": false,
              "name": "IEORRES",
              "dataType": "text",
              "length": 1,
              "origin": {
                "type": "Collected",
                "source": "Investigator"
              },
              "applicableWhen": [
                "WC.IE.945bafbd"
              ]
            },
            {
              "OID": "IT.IE.IEORRES.EX05",
              "mandatory": false,
              "name": "IEORRES",
              "dataType": "text",
              "length": 1,
              "origin": {
                "type": "Collected",
                "source": "Investigator"
              },
              "applicableWhen": [
                "WC.IE.afbec960"
              ]
            },
            {
              "OID": "IT.IE.IEORRES.EX06",
              "mandatory": false,
              "name": "IEORRES",
              "dataType": "text",
              "length": 1,
              "origin": {
                "type": "Collected",
                "source": "Investigator"
              },
              "applicableWhen": [
                "WC.IE.cac0d3f4"
              ]
            },
            {
              "OID": "IT.IE.IEORRES.EX07",
              "mandatory": false,
              "name": "IEORRES",
              "dataType": "text",
              "length": 1,
              "origin": {
                "type": "Collected",
                "source": "Investigator"
              },
              "applicableWhen": [
                "WC.IE.cabd9be0"
              ]
            },
            {
              "OID": "IT.IE.IEORRES.EX08",
              "mandatory": false,
              "name": "IEORRES",
              "dataType": "text",
              "length": 1,
              "origin": {
                "type": "Collected",
                "source": "Investigator"
              },
              "applicableWhen": [
                "WC.IE.fbae7983"
              ]
            },
            {
              "OID": "IT.IE.IEORRES.EX09",
              "mandatory": false,
              "name": "IEORRES",
              "dataType": "text",
              "length": 1,
              "origin": {
                "type": "Collected",
                "source": "Investigator"
              },
              "applicableWhen": [
                "WC.IE.0952c014"
              ]
            },
            {
              "OID": "IT.IE.IEORRES.EX10",
              "mandatory": false,
              "name": "IEORRES",
              "dataType": "text",
              "length": 1,
              "origin": {
                "type": "Collected",
                "source": "Investigator"
              },
              "applicableWhen": [
                "WC.IE.5b8b02b2"
              ]
            },
            {
              "OID": "IT.IE.IEORRES.EX11",
              "mandatory": false,
              "name": "IEORRES",
              "dataType": "text",
              "length": 1,
              "origin": {
                "type": "Collected",
                "source": "Investigator"
              },
              "applicableWhen": [
                "WC.IE.70a941e7"
              ]
            },
            {
              "OID": "IT.IE.IEORRES.EX12",
              "mandatory": false,
              "name": "IEORRES",
              "dataType": "text",
              "length": 1,
              "origin": {
                "type": "Collected",
                "source": "Investigator"
              },
              "applicableWhen": [
                "WC.IE.611f5d7b"
              ]
            },
            {
              "OID": "IT.IE.IEORRES.EX13",
              "mandatory": false,
              "name": "IEORRES",
