{
  "OID": "MDV.360i CDISC PILOT - LZZT",
  "name": "MDV 360i CDISC PILOT - LZZT",
  "description": "Data Definitions for 360i CDISC PILOT - LZZT",
  "fileOID": "ODM.DEFINE-360I.360i CDISC PILOT - LZZT",
  "creationDateTime": "2026-06-12T17:23:17.930773+00:00",
  "odmVersion": "1.3.2",
  "fileType": "Snapshot",
  "originator": "Define-360i Processor",
  "context": "Other",
  "defineVersion": "2.1.0",
  "studyOID": "",
  "studyName": "360i CDISC PILOT - LZZT",
  "studyDescription": "Safety and Efficacy of the Xanomeline Transdermal Therapeutic System (TTS) in Patients with Mild to Moderate Alzheimer's Disease",
  "protocolName": "360i LZZT Xanomeline (LY246708)",
  "itemGroups": [
    {
      "OID": "IG.SC",
      "name": "SC",
      "description": "Subject Characteristics",
      "structure": "One record per vital sign measurement per visit per subject",
      "purpose": "Tabulation",
      "standard": "STD.1",
      "domain": "SC",
      "items": [
        "IT.SC.STUDYID",
        "IT.SC.DOMAIN",
        "IT.SC.USUBJID",
        "IT.SC.SCSEQ",
        "IT.SC.SCTESTCD",
        "IT.SC.SCTEST",
        "IT.SC.SCCAT",
        "IT.SC.SCORRES",
        "IT.SC.SCORRESU",
        "IT.SC.SCSTRESC",
        "IT.SC.SCSTRESN",
        "IT.SC.SCSTRESU",
        "IT.SC.SCDTC",
        "IT.SC.SCDY"
      ],
      "keySequence": [
        "IT.SC.STUDYID",
        "IT.SC.USUBJID"
      ]
    },
    {
      "OID": "IG.LB",
      "name": "LB",
      "description": "Laboratory Test Findings",
      "structure": "One record per vital sign measurement per visit per subject",
      "purpose": "Tabulation",
      "standard": "STD.1",
      "domain": "LB",
      "items": [
        "IT.LB.STUDYID",
        "IT.LB.DOMAIN",
        "IT.LB.USUBJID",
        "IT.LB.LBSEQ",
        "IT.LB.LBTESTCD",
        "IT.LB.LBTEST",
        "IT.LB.LBCAT",
        "IT.LB.LBORRES",
        "IT.LB.LBORRESU",
        "IT.LB.LBORNRLO",
        "IT.LB.LBORNRHI",
        "IT.LB.LBSTRESC",
        "IT.LB.LBSTRESN",
        "IT.LB.LBSTRESU",
        "IT.LB.LBSTNRLO",
        "IT.LB.LBSTNRHI",
        "IT.LB.LBNRIND",
        "IT.LB.LBBLFL",
        "IT.LB.VISITNUM",
        "IT.LB.VISIT",
        "IT.LB.VISITDY",
        "IT.LB.LBDTC",
        "IT.LB.LBDY"
      ],
      "keySequence": [
        "IT.LB.STUDYID",
        "IT.LB.USUBJID",
        "IT.LB.LBTESTCD",
        "IT.LB.VISITNUM"
      ]
    },
    {
      "OID": "IG.AE",
      "name": "AE",
      "description": "Adverse Events",
      "structure": "One record per vital sign measurement per visit per subject",
      "purpose": "Tabulation",
      "standard": "STD.1",
      "domain": "AE",
      "items": [
        "IT.AE.STUDYID",
        "IT.AE.DOMAIN",
        "IT.AE.USUBJID",
        "IT.AE.AESEQ",
        "IT.AE.AESPID",
        "IT.AE.AETERM",
        "IT.AE.AELLT",
        "IT.AE.AELLTCD",
        "IT.AE.AEDECOD",
        "IT.AE.AEPTCD",
        "IT.AE.AEHLT",
        "IT.AE.AEHLTCD",
        "IT.AE.AEHLGT",
        "IT.AE.AEHLGTCD",
        "IT.AE.AEBODSYS",
        "IT.AE.AEBDSYCD",
        "IT.AE.AESOC",
        "IT.AE.AESOCCD",
        "IT.AE.AESEV",
        "IT.AE.AESER",
        "IT.AE.AEACN",
        "IT.AE.AEREL",
        "IT.AE.AEOUT",
        "IT.AE.AESCAN",
        "IT.AE.AESCONG",
        "IT.AE.AESDISAB",
        "IT.AE.AESDTH",
        "IT.AE.AESHOSP",
        "IT.AE.AESLIFE",
        "IT.AE.AESOD",
        "IT.AE.AEDTC",
        "IT.AE.AESTDTC",
        "IT.AE.AEENDTC",
        "IT.AE.AESTDY",
        "IT.AE.AEENDY"
      ],
      "keySequence": [
        "IT.AE.STUDYID",
        "IT.AE.USUBJID"
      ]
    },
    {
      "OID": "IG.QS",
      "name": "QS",
      "description": "Questionnaires",
      "structure": "One record per vital sign measurement per visit per subject",
      "purpose": "Tabulation",
      "standard": "STD.1",
      "domain": "QS",
      "items": [
        "IT.QS.STUDYID",
        "IT.QS.DOMAIN",
        "IT.QS.USUBJID",
        "IT.QS.QSSEQ",
        "IT.QS.QSTESTCD",
        "IT.QS.QSTEST",
        "IT.QS.QSCAT",
        "IT.QS.QSSCAT",
        "IT.QS.QSORRES",
        "IT.QS.QSORRESU",
        "IT.QS.QSSTRESC",
        "IT.QS.QSSTRESN",
        "IT.QS.QSSTRESU",
        "IT.QS.QSBLFL",
        "IT.QS.QSDRVFL",
        "IT.QS.VISITNUM",
        "IT.QS.VISIT",
        "IT.QS.VISITDY",
        "IT.QS.QSDTC",
        "IT.QS.QSDY"
      ],
      "keySequence": [
        "IT.QS.STUDYID",
        "IT.QS.USUBJID"
      ],
      "comments": [
        "COM.QS"
      ]
    },
    {
      "OID": "IG.DM",
      "name": "DM",
      "description": "Demographics",
      "structure": "One record per vital sign measurement per visit per subject",
      "purpose": "Tabulation",
      "standard": "STD.1",
      "domain": "DM",
      "items": [
        "IT.DM.STUDYID",
        "IT.DM.SITEID",
        "IT.DM.DOMAIN",
        "IT.DM.USUBJID",
        "IT.DM.SUBJID",
        "IT.DM.RFSTDTC",
        "IT.DM.RFENDTC",
        "IT.DM.RFXSTDTC",
        "IT.DM.RFXENDTC",
        "IT.DM.RFICDTC",
        "IT.DM.RFPENDTC",
        "IT.DM.DTHDTC",
        "IT.DM.DTHFL",
        "IT.DM.AGE",
        "IT.DM.AGEU",
        "IT.DM.SEX",
        "IT.DM.RACE",
        "IT.DM.ETHNIC",
        "IT.DM.COUNTRY",
        "IT.DM.ARM",
        "IT.DM.ARMCD",
        "IT.DM.ACTARM",
        "IT.DM.ACTARMCD",
        "IT.DM.DMDTC",
        "IT.DM.DMDY"
      ],
      "keySequence": [
        "IT.DM.STUDYID",
        "IT.DM.USUBJID"
      ]
    },
    {
      "OID": "IG.CM",
      "name": "CM",
      "description": "Concomitant Medications",
      "structure": "One record per vital sign measurement per visit per subject",
      "purpose": "Tabulation",
      "standard": "STD.1",
      "domain": "CM",
      "items": [
        "IT.CM.STUDYID",
        "IT.CM.DOMAIN",
        "IT.CM.USUBJID",
        "IT.CM.CMSEQ",
        "IT.CM.CMSPID",
        "IT.CM.CMTRT",
        "IT.CM.CMDECOD",
        "IT.CM.CMINDC",
        "IT.CM.CMCLAS",
        "IT.CM.CMDOSE",
        "IT.CM.CMDOSU",
        "IT.CM.CMDOSFRQ",
        "IT.CM.CMROUTE",
        "IT.CM.VISITNUM",
        "IT.CM.VISIT",
        "IT.CM.VISITDY",
        "IT.CM.CMDTC",
        "IT.CM.CMSTDTC",
        "IT.CM.CMENDTC",
        "IT.CM.CMSTDY",
        "IT.CM.CMENDY"
      ],
      "keySequence": [
        "IT.CM.STUDYID",
        "IT.CM.USUBJID"
      ]
    },
    {
      "OID": "IG.SUPPDS",
      "name": "SUPPDS",
      "description": "Supplemental Qualifiers for DS",
      "structure": "One record per vital sign measurement per visit per subject",
      "purpose": "Tabulation",
      "standard": "STD.1",
      "domain": "DS",
      "items": [
        "IT.SUPPDS.STUDYID",
        "IT.SUPPDS.RDOMAIN",
        "IT.SUPPDS.USUBJID",
        "IT.SUPPDS.IDVAR",
        "IT.SUPPDS.IDVARVAL",
        "IT.SUPPDS.QNAM",
        "IT.SUPPDS.QLABEL",
        "IT.SUPPDS.QVAL",
        "IT.SUPPDS.QORIG",
        "IT.SUPPDS.QEVAL"
      ],
      "keySequence": [
        "IT.SUPPDS.STUDYID",
        "IT.SUPPDS.USUBJID"
      ]
    },
    {
      "OID": "IG.EX",
      "name": "EX",
      "description": "Exposure",
      "structure": "One record per vital sign measurement per visit per subject",
      "purpose": "Tabulation",
      "standard": "STD.1",
      "domain": "EX",
      "items": [
        "IT.EX.STUDYID",
        "IT.EX.DOMAIN",
        "IT.EX.USUBJID",
        "IT.EX.EXSEQ",
        "IT.EX.EXTRT",
        "IT.EX.EXDOSE",
        "IT.EX.EXDOSU",
        "IT.EX.EXDOSFRM",
        "IT.EX.EXDOSFRQ",
        "IT.EX.EXROUTE",
        "IT.EX.VISITNUM",
        "IT.EX.VISIT",
        "IT.EX.VISITDY",
        "IT.EX.EXSTDTC",
        "IT.EX.EXENDTC",
        "IT.EX.EXSTDY",
        "IT.EX.EXENDY"
      ],
      "keySequence": [
        "IT.EX.STUDYID",
        "IT.EX.USUBJID"
      ]
    },
    {
      "OID": "IG.VS",
      "name": "VS",
      "description": "Vital Signs",
      "structure": "One record per vital sign measurement per visit per subject",
      "purpose": "Tabulation",
      "standard": "STD.1",
      "domain": "VS",
      "items": [
        "IT.VS.STUDYID",
        "IT.VS.DOMAIN",
        "IT.VS.USUBJID",
        "IT.VS.VSSEQ",
        "IT.VS.VSTESTCD",
        "IT.VS.VSTEST",
        "IT.VS.VSPOS",
        "IT.VS.VSORRES",
        "IT.VS.VSORRESU",
        "IT.VS.VSSTRESC",
        "IT.VS.VSSTRESN",
        "IT.VS.VSSTRESU",
        "IT.VS.VSSTAT",
        "IT.VS.VSLOC",
        "IT.VS.VSBLFL",
        "IT.VS.VISITNUM",
        "IT.VS.VISIT",
        "IT.VS.VISITDY",
        "IT.VS.VSDTC",
        "IT.VS.VSDY",
        "IT.VS.VSTPT",
        "IT.VS.VSTPTNUM",
        "IT.VS.VSELTM",
        "IT.VS.VSTPTREF"
      ],
      "keySequence": [
        "IT.VS.STUDYID",
        "IT.VS.USUBJID"
      ],
      "slices": [
        {
          "OID": "VL.VS.VSORRES",
          "name": "VL_VS_VSORRES",
          "type": "ValueList",
          "items": [
            "IT.VS.VSORRES.TEMP",
            "IT.VS.VSORRES.WEIGHT",
            "IT.VS.VSORRES.HEIGHT",
            "IT.VS.VSORRES.BP",
            "IT.VS.VSORRES.HR"
          ]
        },
        {
          "OID": "VL.VS.VSORRESU",
          "name": "VL_VS_VSORRESU",
          "type": "ValueList",
          "items": [
            "IT.VS.VSORRESU.TEMP",
            "IT.VS.VSORRESU.WEIGHT",
            "IT.VS.VSORRESU.HEIGHT",
            "IT.VS.VSORRESU.BP",
            "IT.VS.VSORRESU.HR"
          ]
        },
        {
          "OID": "VL.VS.VSSTRESC",
          "name": "VL_VS_VSSTRESC",
          "type": "ValueList",
          "items": [
            "IT.VS.VSSTRESC.TEMP",
            "IT.VS.VSSTRESC.WEIGHT",
            "IT.VS.VSSTRESC.HEIGHT",
            "IT.VS.VSSTRESC.BP",
            "IT.VS.VSSTRESC.HR"
          ]
        },
        {
          "OID": "VL.VS.VSSTRESN",
          "name": "VL_VS_VSSTRESN",
          "type": "ValueList",
          "items": [
            "IT.VS.VSSTRESN.TEMP",
            "IT.VS.VSSTRESN.WEIGHT",
            "IT.VS.VSSTRESN.HEIGHT",
            "IT.VS.VSSTRESN.BP",
            "IT.VS.VSSTRESN.HR"
          ]
        },
        {
          "OID": "VL.VS.VSSTRESU",
          "name": "VL_VS_VSSTRESU",
          "type": "ValueList",
          "items": [
            "IT.VS.VSSTRESU.TEMP",
            "IT.VS.VSSTRESU.WEIGHT",
            "IT.VS.VSSTRESU.HEIGHT",
            "IT.VS.VSSTRESU.BP",
            "IT.VS.VSSTRESU.HR"
          ]
        }
      ]
    },
    {
      "OID": "IG.MH",
      "name": "MH",
      "description": "Medical History",
      "structure": "One record per vital sign measurement per visit per subject",
      "purpose": "Tabulation",
      "standard": "STD.1",
      "domain": "MH",
      "items": [
        "IT.MH.STUDYID",
        "IT.MH.DOMAIN",
        "IT.MH.USUBJID",
        "IT.MH.MHSEQ",
        "IT.MH.MHSPID",
        "IT.MH.MHTERM",
        "IT.MH.MHLLT",
        "IT.MH.MHDECOD",
        "IT.MH.MHHLT",
        "IT.MH.MHHLGT",
        "IT.MH.MHCAT",
        "IT.MH.MHBODSYS",
        "IT.MH.MHSEV",
        "IT.MH.VISITNUM",
        "IT.MH.VISIT",
        "IT.MH.VISITDY",
        "IT.MH.MHDTC",
        "IT.MH.MHSTDTC",
        "IT.MH.MHDY"
      ],
      "keySequence": [
        "IT.MH.STUDYID",
        "IT.MH.USUBJID"
      ]
    },
    {
      "OID": "IG.DS",
      "name": "DS",
      "description": "Disposition",
      "structure": "One record per vital sign measurement per visit per subject",
      "purpose": "Tabulation",
      "standard": "STD.1",
      "domain": "DS",
      "items": [
        "IT.DS.STUDYID",
        "IT.DS.DOMAIN",
        "IT.DS.USUBJID",
        "IT.DS.DSSEQ",
        "IT.DS.DSSPID",
        "IT.DS.DSTERM",
        "IT.DS.DSDECOD",
        "IT.DS.DSCAT",
        "IT.DS.VISITNUM",
        "IT.DS.VISIT",
        "IT.DS.DSDTC",
        "IT.DS.DSSTDTC",
        "IT.DS.DSSTDY"
      ],
      "keySequence": [
        "IT.DS.STUDYID",
        "IT.DS.USUBJID"
      ]
    }
  ],
  "conditions": [
    {
      "OID": "COND.WC.VS.VSTESTCD.BP",
      "rangeChecks": [
        {
          "comparator": "IN",
          "checkValues": [
            "SYSBP",
            "DIABP"
          ],
          "item": "IT.VS.VSTESTCD",
          "softHard": "Soft"
        }
      ]
    },
    {
      "OID": "COND.WC.VS.VSTESTCD.HEIGHT",
      "rangeChecks": [
        {
          "comparator": "EQ",
          "checkValues": [
            "HEIGHT"
          ],
          "item": "IT.VS.VSTESTCD",
          "softHard": "Soft"
        }
      ]
    },
    {
      "OID": "COND.WC.VS.VSTESTCD.HR",
      "rangeChecks": [
        {
          "comparator": "EQ",
          "checkValues": [
            "HR"
          ],
          "item": "IT.VS.VSTESTCD",
          "softHard": "Soft"
        }
      ]
    },
    {
      "OID": "COND.WC.VS.VSTESTCD.TEMP",
      "rangeChecks": [
        {
          "comparator": "EQ",
          "checkValues": [
            "TEMP"
          ],
          "item": "IT.VS.VSTESTCD",
          "softHard": "Soft"
        }
      ]
    },
    {
      "OID": "COND.WC.VS.VSTESTCD.WEIGHT",
      "rangeChecks": [
        {
          "comparator": "EQ",
          "checkValues": [
            "WEIGHT"
          ],
          "item": "IT.VS.VSTESTCD",
          "softHard": "Soft"
        }
      ]
    }
  ],
  "whereClauses": [
    {
      "OID": "WC.VS.VSTESTCD.BP",
      "conditions": [
        "COND.WC.VS.VSTESTCD.BP"
      ]
    },
    {
      "OID": "WC.VS.VSTESTCD.HEIGHT",
      "conditions": [
        "COND.WC.VS.VSTESTCD.HEIGHT"
      ]
    },
    {
      "OID": "WC.VS.VSTESTCD.HR",
      "conditions": [
        "COND.WC.VS.VSTESTCD.HR"
      ]
    },
    {
      "OID": "WC.VS.VSTESTCD.TEMP",
      "conditions": [
        "COND.WC.VS.VSTESTCD.TEMP"
      ]
    },
    {
      "OID": "WC.VS.VSTESTCD.WEIGHT",
      "conditions": [
        "COND.WC.VS.VSTESTCD.WEIGHT"
      ]
    }
  ],
  "codeLists": [
    {
      "OID": "CL.C100129",
      "name": "Category of Questionnaire",
      "dataType": "text",
      "coding": [
        {
          "code": "C100129",
          "codeSystem": "nci:ExtCodeID"
        }
      ],
      "standard": "STD.2",
      "codeListItems": [
        {
          "codedValue": "ABC",
          "coding": {
            "code": "C187516",
            "codeSystem": "nci:ExtCodeID"
          },
          "decode": "Activities-Specific Balance Confidence Scale Questionnaire"
        },
        {
          "codedValue": "ACQ",
          "coding": {
            "code": "C122370",
            "codeSystem": "nci:ExtCodeID"
          },
          "decode": "Asthma Control Questionnaire"
        },
        {
          "codedValue": "ACT",
          "coding": {
            "code": "C123658",
            "codeSystem": "nci:ExtCodeID"
          },
          "decode": "Asthma Control Test Questionnaire"
        },
        {
          "codedValue": "ADCS-ADL MCI",
          "coding": {
            "code": "C106888",
            "codeSystem": "nci:ExtCodeID"
          },
          "decode": "Alzheimer's Disease Cooperative Study-Activities of Daily Living Inventory Mild Cognitive Impairment Questionnaire"
        },
        {
          "codedValue": "ADCS-ADL SEVERE DEMENTIA",
          "coding": {
            "code": "C106889",
            "codeSystem": "nci:ExtCodeID"
          },
          "decode": "Alzheimer's Disease Cooperative Study-Activities of Daily Living Inventory Severe Dementia Questionnaire"
        },
        {
          "codedValue": "ADCS-ADL",
          "coding": {
            "code": "C105166",
            "codeSystem": "nci:ExtCodeID"
          },
          "decode": "Alzheimer's Disease Cooperative Study Activities of Daily Living Inventory Questionnaire"
        },
        {
          "codedValue": "ADCS-CGIC",
          "coding": {
            "code": "C103515",
            "codeSystem": "nci:ExtCodeID"
          },
          "decode": "Alzheimer's Disease Cooperative Study-Clinical Global Impression of Change Questionnaire"
        },
        {
          "codedValue": "ADHD-RS-IV HOME VERSION",
          "coding": {
            "code": "C122371",
            "codeSystem": "nci:ExtCodeID"
          },
          "decode": "ADHD Rating Scale-IV Home Version Questionnaire"
        },
        {
          "codedValue": "ADSD V1.0",
          "coding": {
            "code": "C163811",
            "codeSystem": "nci:ExtCodeID"
          },
          "decode": "Asthma Daytime Symptom Diary V1.0 Questionnaire"
        },
        {
          "codedValue": "ANSD V1.0",
          "coding": {
            "code": "C163812",
            "codeSystem": "nci:ExtCodeID"
          },
          "decode": "Asthma Nighttime Symptom Diary V1.0 Questionnaire"
        },
        {
          "codedValue": "AQ20",
          "coding": {
            "code": "C112518",
            "codeSystem": "nci:ExtCodeID"
          },
          "decode": "Airway Questionnaire 20"
        },
        {
          "codedValue": "ABC",
          "coding": {
            "code": "C187516",
            "codeSystem": "nci:ExtCodeID"
          },
          "decode": "Activities-Specific Balance Confidence Scale Questionnaire"
        },
        {
          "codedValue": "ACQ",
          "coding": {
            "code": "C122370",
            "codeSystem": "nci:ExtCodeID"
          },
          "decode": "Asthma Control Questionnaire"
        },
        {
          "codedValue": "ACT",
          "coding": {
            "code": "C123658",
            "codeSystem": "nci:ExtCodeID"
          },
          "decode": "Asthma Control Test Questionnaire"
        },
        {
          "codedValue": "ADCS-ADL MCI",
          "coding": {
            "code": "C106888",
            "codeSystem": "nci:ExtCodeID"
          },
          "decode": "Alzheimer's Disease Cooperative Study-Activities of Daily Living Inventory Mild Cognitive Impairment Questionnaire"
        },
        {
          "codedValue": "ADCS-ADL SEVERE DEMENTIA",
          "coding": {
            "code": "C106889",
            "codeSystem": "nci:ExtCodeID"
          },
          "decode": "Alzheimer's Disease Cooperative Study-Activities of Daily Living Inventory Severe Dementia Questionnaire"
        },
        {
          "codedValue": "ADCS-ADL",
          "coding": {
            "code": "C105166",
            "codeSystem": "nci:ExtCodeID"
          },
          "decode": "Alzheimer's Disease Cooperative Study Activities of Daily Living Inventory Questionnaire"
        },
        {
          "codedValue": "ADCS-CGIC",
          "coding": {
            "code": "C103515",
            "codeSystem": "nci:ExtCodeID"
          },
          "decode": "Alzheimer's Disease Cooperative Study-Clinical Global Impression of Change Questionnaire"
        },
        {
          "codedValue": "ADHD-RS-IV HOME VERSION",
          "coding": {
            "code": "C122371",
            "codeSystem": "nci:ExtCodeID"
          },
          "decode": "ADHD Rating Scale-IV Home Version Questionnaire"
        },
        {
          "codedValue": "ADSD V1.0",
          "coding": {
            "code": "C163811",
            "codeSystem": "nci:ExtCodeID"
          },
          "decode": "Asthma Daytime Symptom Diary V1.0 Questionnaire"
        },
        {
          "codedValue": "ANSD V1.0",
          "coding": {
            "code": "C163812",
            "codeSystem": "nci:ExtCodeID"
          },
          "decode": "Asthma Nighttime Symptom Diary V1.0 Questionnaire"
        },
        {
          "codedValue": "AQ20",
          "coding": {
            "code": "C112518",
            "codeSystem": "nci:ExtCodeID"
          },
          "decode": "Airway Questionnaire 20"
        },
        {
          "codedValue": "ABC",
          "coding": {
            "code": "C187516",
            "codeSystem": "nci:ExtCodeID"
          },
          "decode": "Activities-Specific Balance Confidence Scale Questionnaire"
        },
        {
          "codedValue": "ACQ",
          "coding": {
            "code": "C122370",
            "codeSystem": "nci:ExtCodeID"
          },
          "decode": "Asthma Control Questionnaire"
        },
        {
          "codedValue": "ACT",
          "coding": {
            "code": "C123658",
            "codeSystem": "nci:ExtCodeID"
          },
          "decode": "Asthma Control Test Questionnaire"
        },
        {
          "codedValue": "ADCS-ADL MCI",
          "coding": {
            "code": "C106888",
            "codeSystem": "nci:ExtCodeID"
          },
          "decode": "Alzheimer's Disease Cooperative Study-Activities of Daily Living Inventory Mild Cognitive Impairment Questionnaire"
        },
        {
          "codedValue": "ADCS-ADL SEVERE DEMENTIA",
          "coding": {
            "code": "C106889",
            "codeSystem": "nci:ExtCodeID"
          },
          "decode": "Alzheimer's Disease Cooperative Study-Activities of Daily Living Inventory Severe Dementia Questionnaire"
        },
        {
          "codedValue": "ADCS-ADL",
          "coding": {
            "code": "C105166",
            "codeSystem": "nci:ExtCodeID"
          },
          "decode": "Alzheimer's Disease Cooperative Study Activities of Daily Living Inventory Questionnaire"
        },
        {
          "codedValue": "ADCS-CGIC",
          "coding": {
            "code": "C103515",
            "codeSystem": "nci:ExtCodeID"
          },
          "decode": "Alzheimer's Disease Cooperative Study-Clinical Global Impression of Change Questionnaire"
        },
        {
          "codedValue": "ADHD-RS-IV HOME VERSION",
          "coding": {
            "code": "C122371",
            "codeSystem": "nci:ExtCodeID"
          },
          "decode": "ADHD Rating Scale-IV Home Version Questionnaire"
        },
        {
          "codedValue": "ADSD V1.0",
          "coding": {
            "code": "C163811",
            "codeSystem": "nci:ExtCodeID"
          },
          "decode": "Asthma Daytime Symptom Diary V1.0 Questionnaire"
        },
        {
          "codedValue": "ANSD V1.0",
          "coding": {
            "code": "C163812",
            "codeSystem": "nci:ExtCodeID"
          },
          "decode": "Asthma Nighttime Symptom Diary V1.0 Questionnaire"
        },
        {
          "codedValue": "AQ20",
          "coding": {
            "code": "C112518",
            "codeSystem": "nci:ExtCodeID"
          },
          "decode": "Airway Questionnaire 20"
        },
        {
          "codedValue": "ABC",
          "coding": {
            "code": "C187516",
            "codeSystem": "nci:ExtCodeID"
          },
          "decode": "Activities-Specific Balance Confidence Scale Questionnaire"
        },
        {
          "codedValue": "ACQ",
          "coding": {
            "code": "C122370",
            "codeSystem": "nci:ExtCodeID"
          },
          "decode": "Asthma Control Questionnaire"
        },
        {
          "codedValue": "ACT",
          "coding": {
            "code": "C123658",
            "codeSystem": "nci:ExtCodeID"
          },
          "decode": "Asthma Control Test Questionnaire"
        },
        {
          "codedValue": "ADCS-ADL MCI",
          "coding": {
            "code": "C106888",
            "codeSystem": "nci:ExtCodeID"
          },
          "decode": "Alzheimer's Disease Cooperative Study-Activities of Daily Living Inventory Mild Cognitive Impairment Questionnaire"
        },
        {
          "codedValue": "ADCS-ADL SEVERE DEMENTIA",
          "coding": {
            "code": "C106889",
            "codeSystem": "nci:ExtCodeID"
          },
          "decode": "Alzheimer's Disease Cooperative Study-Activities of Daily Living Inventory Severe Dementia Questionnaire"
        },
        {
          "codedValue": "ADCS-ADL",
          "coding": {
            "code": "C105166",
            "codeSystem": "nci:ExtCodeID"
          },
          "decode": "Alzheimer's Disease Cooperative Study Activities of Daily Living Inventory Questionnaire"
        },
        {
          "codedValue": "ADCS-CGIC",
          "coding": {
            "code": "C103515",
            "codeSystem": "nci:ExtCodeID"
          },
          "decode": "Alzheimer's Disease Cooperative Study-Clinical Global Impression of Change Questionnaire"
        },
        {
          "codedValue": "ADHD-RS-IV HOME VERSION",
          "coding": {
            "code": "C122371",
            "codeSystem": "nci:ExtCodeID"
          },
          "decode": "ADHD Rating Scale-IV Home Version Questionnaire"
        },
        {
          "codedValue": "ADSD V1.0",
          "coding": {
            "code": "C163811",
            "codeSystem": "nci:ExtCodeID"
          },
          "decode": "Asthma Daytime Symptom Diary V1.0 Questionnaire"
        },
        {
          "codedValue": "ANSD V1.0",
          "coding": {
            "code": "C163812",
            "codeSystem": "nci:ExtCodeID"
          },
          "decode": "Asthma Nighttime Symptom Diary V1.0 Questionnaire"
        },
        {
          "codedValue": "AQ20",
          "coding": {
            "code": "C112518",
            "codeSystem": "nci:ExtCodeID"
          },
          "decode": "Airway Questionnaire 20"
        },
        {
          "codedValue": "ABC",
          "coding": {
            "code": "C187516",
            "codeSystem": "nci:ExtCodeID"
          },
          "decode": "Activities-Specific Balance Confidence Scale Questionnaire"
        },
        {
          "codedValue": "ACQ",
          "coding": {
            "code": "C122370",
            "codeSystem": "nci:ExtCodeID"
          },
          "decode": "Asthma Control Questionnaire"
        },
        {
          "codedValue": "ACT",
          "coding": {
            "code": "C123658",
            "codeSystem": "nci:ExtCodeID"
          },
          "decode": "Asthma Control Test Questionnaire"
        },
        {
          "codedValue": "ADCS-ADL MCI",
          "coding": {
            "code": "C106888",
            "codeSystem": "nci:ExtCodeID"
          },
          "decode": "Alzheimer's Disease Cooperative Study-Activities of Daily Living Inventory Mild Cognitive Impairment Questionnaire"
        },
        {
          "codedValue": "ADCS-ADL SEVERE DEMENTIA",
          "coding": {
            "code": "C106889",
            "codeSystem": "nci:ExtCodeID"
          },
          "decode": "Alzheimer's Disease Cooperative Study-Activities of Daily Living Inventory Severe Dementia Questionnaire"
        },
        {
          "codedValue": "ADCS-ADL",
          "coding": {
            "code": "C105166",
            "codeSystem": "nci:ExtCodeID"
          },
          "decode": "Alzheimer's Disease Cooperative Study Activities of Daily Living Inventory Questionnaire"
        },
        {
          "codedValue": "ADCS-CGIC",
          "coding": {
            "code": "C103515",
            "codeSystem": "nci:ExtCodeID"
          },
          "decode": "Alzheimer's Disease Cooperative Study-Clinical Global Impression of Change Questionnaire"
        },
        {
          "codedValue": "ADHD-RS-IV HOME VERSION",
          "coding": {
            "code": "C122371",
            "codeSystem": "nci:ExtCodeID"
          },
          "decode": "ADHD Rating Scale-IV Home Version Questionnaire"
        },
        {
          "codedValue": "ADSD V1.0",
          "coding": {
            "code": "C163811",
            "codeSystem": "nci:ExtCodeID"
          },
          "decode": "Asthma Daytime Symptom Diary V1.0 Questionnaire"
        },
        {
          "codedValue": "ANSD V1.0",
          "coding": {
            "code": "C163812",
            "codeSystem": "nci:ExtCodeID"
          },
          "decode": "Asthma Nighttime Symptom Diary V1.0 Questionnaire"
        },
        {
          "codedValue": "AQ20",
          "coding": {
            "code": "C112518",
            "codeSystem": "nci:ExtCodeID"
          },
          "decode": "Airway Questionnaire 20"
        },
        {
          "codedValue": "ABC",
          "coding": {
            "code": "C187516",
            "codeSystem": "nci:ExtCodeID"
          },
          "decode": "Activities-Specific Balance Confidence Scale Questionnaire"
        },
        {
          "codedValue": "ACQ",
          "coding": {
            "code": "C122370",
            "codeSystem": "nci:ExtCodeID"
          },
          "decode": "Asthma Control Questionnaire"
        },
        {
          "codedValue": "ACT",
          "coding": {
            "code": "C123658",
            "codeSystem": "nci:ExtCodeID"
          },
          "decode": "Asthma Control Test Questionnaire"
        },
        {
          "codedValue": "ADCS-ADL MCI",
          "coding": {
            "code": "C106888",
            "codeSystem": "nci:ExtCodeID"
          },
          "decode": "Alzheimer's Disease Cooperative Study-Activities of Daily Living Inventory Mild Cognitive Impairment Questionnaire"
        },
        {
          "codedValue": "ADCS-ADL SEVERE DEMENTIA",
          "coding": {
            "code": "C106889",
            "codeSystem": "nci:ExtCodeID"
          },
          "decode": "Alzheimer's Disease Cooperative Study-Activities of Daily Living Inventory Severe Dementia Questionnaire"
        },
        {
          "codedValue": "ADCS-ADL",
          "coding": {
            "code": "C105166",
            "codeSystem": "nci:ExtCodeID"
          },
          "decode": "Alzheimer's Disease Cooperative Study Activities of Daily Living Inventory Questionnaire"
        },
        {
          "codedValue": "ADCS-CGIC",
          "coding": {
            "code": "C103515",
            "codeSystem": "nci:ExtCodeID"
          },
          "decode": "Alzheimer's Disease Cooperative Study-Clinical Global Impression of Change Questionnaire"
        },
        {
          "codedValue": "ADHD-RS-IV HOME VERSION",
          "coding": {
            "code": "C122371",
            "codeSystem": "nci:ExtCodeID"
          },
          "decode": "ADHD Rating Scale-IV Home Version Questionnaire"
        },
        {
          "codedValue": "ADSD V1.0",
          "coding": {
            "code": "C163811",
            "codeSystem": "nci:ExtCodeID"
          },
          "decode": "Asthma Daytime Symptom Diary V1.0 Questionnaire"
        },
        {
          "codedValue": "ANSD V1.0",
          "coding": {
            "code": "C163812",
            "codeSystem": "nci:ExtCodeID"
          },
          "decode": "Asthma Nighttime Symptom Diary V1.0 Questionnaire"
        },
        {
          "codedValue": "AQ20",
          "coding": {
            "code": "C112518",
            "codeSystem": "nci:ExtCodeID"
          },
          "decode": "Airway Questionnaire 20"
        },
        {
          "codedValue": "ABC",
          "coding": {
            "code": "C187516",
            "codeSystem": "nci:ExtCodeID"
          },
          "decode": "Activities-Specific Balance Confidence Scale Questionnaire"
        },
        {
          "codedValue": "ACQ",
          "coding": {
            "code": "C122370",
            "codeSystem": "nci:ExtCodeID"
          },
          "decode": "Asthma Control Questionnaire"
        },
        {
          "codedValue": "ACT",
          "coding": {
            "code": "C123658",
            "codeSystem": "nci:ExtCodeID"
          },
          "decode": "Asthma Control Test Questionnaire"
        },
        {
          "codedValue": "ADCS-ADL MCI",
          "coding": {
            "code": "C106888",
            "codeSystem": "nci:ExtCodeID"
          },
          "decode": "Alzheimer's Disease Cooperative Study-Activities of Daily Living Inventory Mild Cognitive Impairment Questionnaire"
        },
        {
          "codedValue": "ADCS-ADL SEVERE DEMENTIA",
          "coding": {
            "code": "C106889",
            "codeSystem": "nci:ExtCodeID"
          },
          "decode": "Alzheimer's Disease Cooperative Study-Activities of Daily Living Inventory Severe Dementia Questionnaire"
        },
        {
          "codedValue": "ADCS-ADL",
          "coding": {
            "code": "C105166",
            "codeSystem": "nci:ExtCodeID"
          },
          "decode": "Alzheimer's Disease Cooperative Study Activities of Daily Living Inventory Questionnaire"
        },
        {
          "codedValue": "ADCS-CGIC",
          "coding": {
            "code": "C103515",
            "codeSystem": "nci:ExtCodeID"
          },
          "decode": "Alzheimer's Disease Cooperative Study-Clinical Global Impression of Change Questionnaire"
        },
        {
          "codedValue": "ADHD-RS-IV HOME VERSION",
          "coding": {
            "code": "C122371",
            "codeSystem": "nci:ExtCodeID"
          },
          "decode": "ADHD Rating Scale-IV Home Version Questionnaire"
        },
        {
          "codedValue": "ADSD V1.0",
          "coding": {
            "code": "C163811",
            "codeSystem": "nci:ExtCodeID"
          },
          "decode": "Asthma Daytime Symptom Diary V1.0 Questionnaire"
        },
        {
          "codedValue": "ANSD V1.0",
          "coding": {
            "code": "C163812",
            "codeSystem": "nci:ExtCodeID"
          },
          "decode": "Asthma Nighttime Symptom Diary V1.0 Questionnaire"
        },
        {
          "codedValue": "AQ20",
          "coding": {
            "code": "C112518",
            "codeSystem": "nci:ExtCodeID"
          },
          "decode": "Airway Questionnaire 20"
        },
        {
          "codedValue": "ABC",
          "coding": {
            "code": "C187516",
            "codeSystem": "nci:ExtCodeID"
          },
          "decode": "Activities-Specific Balance Confidence Scale Questionnaire"
        },
        {
          "codedValue": "ACQ",
          "coding": {
            "code": "C122370",
            "codeSystem": "nci:ExtCodeID"
          },
          "decode": "Asthma Control Questionnaire"
        },
        {
          "codedValue": "ACT",
          "coding": {
            "code": "C123658",
            "codeSystem": "nci:ExtCodeID"
          },
          "decode": "Asthma Control Test Questionnaire"
        },
        {
          "codedValue": "ADCS-ADL MCI",
          "coding": {
            "code": "C106888",
            "codeSystem": "nci:ExtCodeID"
          },
          "decode": "Alzheimer's Disease Cooperative Study-Activities of Daily Living Inventory Mild Cognitive Impairment Questionnaire"
        },
        {
          "codedValue": "ADCS-ADL SEVERE DEMENTIA",
          "coding": {
            "code": "C106889",
            "codeSystem": "nci:ExtCodeID"
          },
          "decode": "Alzheimer's Disease Cooperative Study-Activities of Daily Living Inventory Severe Dementia Questionnaire"
        },
        {
          "codedValue": "ADCS-ADL",
          "coding": {
            "code": "C105166",
            "codeSystem": "nci:ExtCodeID"
          },
          "decode": "Alzheimer's Disease Cooperative Study Activities of Daily Living Inventory Questionnaire"
        },
        {
          "codedValue": "ADCS-CGIC",
          "coding": {
            "code": "C103515",
            "codeSystem": "nci:ExtCodeID"
          },
          "decode": "Alzheimer's Disease Cooperative Study-Clinical Global Impression of Change Questionnaire"
        },
        {
          "codedValue": "ADHD-RS-IV HOME VERSION",
          "coding": {
            "code": "C122371",
            "codeSystem": "nci:ExtCodeID"
          },
          "decode": "ADHD Rating Scale-IV Home Version Questionnaire"
        },
        {
          "codedValue": "ADSD V1.0",
          "coding": {
            "code": "C163811",
            "codeSystem": "nci:ExtCodeID"
          },
          "decode": "Asthma Daytime Symptom Diary V1.0 Questionnaire"
        },
        {
          "codedValue": "ANSD V1.0",
          "coding": {
            "code": "C163812",
            "codeSystem": "nci:ExtCodeID"
          },
          "decode": "Asthma Nighttime Symptom Diary V1.0 Questionnaire"
        },
        {
          "codedValue": "AQ20",
          "coding": {
            "code": "C112518",
            "codeSystem": "nci:ExtCodeID"
          },
          "decode": "Airway Questionnaire 20"
        }
      ]
    },
    {
      "OID": "CL.C102580",
      "name": "Laboratory Test Standard Character Result",
      "dataType": "text",
      "coding": [
        {
          "code": "C102580",
          "codeSystem": "nci:ExtCodeID"
        }
      ],
      "standard": "STD.2",
      "codeListItems": [
        {
          "codedValue": "ABNORMAL",
          "coding": {
            "code": "C25401",
            "codeSystem": "nci:ExtCodeID"
          },
          "decode": "Abnormal"
        },
        {
          "codedValue": "ABSENT",
          "coding": {
            "code": "C48190",
            "codeSystem": "nci:ExtCodeID"
          },
          "decode": "Absent"
        },
        {
          "codedValue": "BORDERLINE",
          "coding": {
            "code": "C14157",
            "codeSystem": "nci:ExtCodeID"
          },
          "decode": "Borderline"
        },
        {
          "codedValue": "DETECTED",
          "coding": {
            "code": "C191719",
            "codeSystem": "nci:ExtCodeID"
          },
          "decode": "Detected Finding"
        },
        {
          "codedValue": "INDETERMINATE",
          "coding": {
            "code": "C48658",
            "codeSystem": "nci:ExtCodeID"
          },
          "decode": "Indeterminate"
        },
        {
          "codedValue": "NEGATIVE",
          "coding": {
            "code": "C38757",
            "codeSystem": "nci:ExtCodeID"
          },
          "decode": "Negative Finding"
        },
        {
          "codedValue": "NORMAL",
          "coding": {
            "code": "C14165",
            "codeSystem": "nci:ExtCodeID"
          },
          "decode": "Normal"
        },
        {
          "codedValue": "NOT DETECTED",
          "coding": {
            "code": "C191300",
            "codeSystem": "nci:ExtCodeID"
          },
          "decode": "Not Detected"
        },
        {
          "codedValue": "POSITIVE",
          "coding": {
            "code": "C38758",
            "codeSystem": "nci:ExtCodeID"
          },
          "decode": "Positive Finding"
        },
        {
          "codedValue": "PRESENT",
          "coding": {
            "code": "C25626",
            "codeSystem": "nci:ExtCodeID"
          },
          "decode": "Present"
        },
        {
          "codedValue": "STRONGLY POSITIVE",
          "coding": {
            "code": "C191301",
            "codeSystem": "nci:ExtCodeID"
          },
          "decode": "Strongly Positive"
        },
        {
          "codedValue": "ABNORMAL",
          "coding": {
            "code": "C25401",
            "codeSystem": "nci:ExtCodeID"
          },
          "decode": "Abnormal"
        },
        {
          "codedValue": "ABSENT",
          "coding": {
            "code": "C48190",
            "codeSystem": "nci:ExtCodeID"
          },
          "decode": "Absent"
        },
        {
          "codedValue": "BORDERLINE",
          "coding": {
            "code": "C14157",
            "codeSystem": "nci:ExtCodeID"
          },
          "decode": "Borderline"
        },
        {
          "codedValue": "DETECTED",
          "coding": {
            "code": "C191719",
            "codeSystem": "nci:ExtCodeID"
          },
          "decode": "Detected Finding"
        },
        {
          "codedValue": "INDETERMINATE",
          "coding": {
            "code": "C48658",
            "codeSystem": "nci:ExtCodeID"
          },
          "decode": "Indeterminate"
        },
        {
          "codedValue": "NEGATIVE",
          "coding": {
            "code": "C38757",
            "codeSystem": "nci:ExtCodeID"
          },
          "decode": "Negative Finding"
        },
        {
          "codedValue": "NORMAL",
          "coding": {
            "code": "C14165",
            "codeSystem": "nci:ExtCodeID"
          },
          "decode": "Normal"
        },
        {
          "codedValue": "NOT DETECTED",
          "coding": {
            "code": "C191300",
            "codeSystem": "nci:ExtCodeID"
          },
          "decode": "Not Detected"
        },
        {
          "codedValue": "POSITIVE",
          "coding": {
            "code": "C38758",
            "codeSystem": "nci:ExtCodeID"
          },
          "decode": "Positive Finding"
        },
        {
          "codedValue": "PRESENT",
          "coding": {
            "code": "C25626",
            "codeSystem": "nci:ExtCodeID"
          },
          "decode": "Present"
        },
        {
          "codedValue": "STRONGLY POSITIVE",
          "coding": {
            "code": "C191301",
            "codeSystem": "nci:ExtCodeID"
          },
          "decode": "Strongly Positive"
        },
        {
          "codedValue": "ABNORMAL",
          "coding": {
            "code": "C25401",
            "codeSystem": "nci:ExtCodeID"
          },
          "decode": "Abnormal"
        },
        {
          "codedValue": "ABSENT",
          "coding": {
            "code": "C48190",
            "codeSystem": "nci:ExtCodeID"
          },
          "decode": "Absent"
        },
        {
          "codedValue": "BORDERLINE",
          "coding": {
            "code": "C14157",
            "codeSystem": "nci:ExtCodeID"
          },
          "decode": "Borderline"
        },
        {
          "codedValue": "DETECTED",
          "coding": {
            "code": "C191719",
            "codeSystem": "nci:ExtCodeID"
          },
          "decode": "Detected Finding"
        },
        {
          "codedValue": "INDETERMINATE",
          "coding": {
            "code": "C48658",
            "codeSystem": "nci:ExtCodeID"
          },
          "decode": "Indeterminate"
        },
        {
          "codedValue": "NEGATIVE",
          "coding": {
            "code": "C38757",
            "codeSystem": "nci:ExtCodeID"
          },
          "decode": "Negative Finding"
        },
        {
          "codedValue": "NORMAL",
          "coding": {
            "code": "C14165",
            "codeSystem": "nci:ExtCodeID"
          },
          "decode": "Normal"
        },
        {
          "codedValue": "NOT DETECTED",
          "coding": {
            "code": "C191300",
            "codeSystem": "nci:ExtCodeID"
          },
          "decode": "Not Detected"
        },
        {
          "codedValue": "POSITIVE",
          "coding": {
            "code": "C38758",
            "codeSystem": "nci:ExtCodeID"
          },
          "decode": "Positive Finding"
        },
        {
          "codedValue": "PRESENT",
          "coding": {
            "code": "C25626",
            "codeSystem": "nci:ExtCodeID"
          },
          "decode": "Present"
        },
        {
          "codedValue": "STRONGLY POSITIVE",
          "coding": {
            "code": "C191301",
            "codeSystem": "nci:ExtCodeID"
          },
          "decode": "Strongly Positive"
        },
        {
          "codedValue": "ABNORMAL",
          "coding": {
            "code": "C25401",
            "codeSystem": "nci:ExtCodeID"
          },
          "decode": "Abnormal"
        },
        {
          "codedValue": "ABSENT",
          "coding": {
            "code": "C48190",
            "codeSystem": "nci:ExtCodeID"
          },
          "decode": "Absent"
        },
        {
          "codedValue": "BORDERLINE",
          "coding": {
            "code": "C14157",
            "codeSystem": "nci:ExtCodeID"
          },
          "decode": "Borderline"
        },
        {
          "codedValue": "DETECTED",
          "coding": {
            "code": "C191719",
            "codeSystem": "nci:ExtCodeID"
          },
          "decode": "Detected Finding"
        },
        {
          "codedValue": "INDETERMINATE",
          "coding": {
            "code": "C48658",
            "codeSystem": "nci:ExtCodeID"
          },
          "decode": "Indeterminate"
        },
        {
          "codedValue": "NEGATIVE",
          "coding": {
            "code": "C38757",
            "codeSystem": "nci:ExtCodeID"
          },
          "decode": "Negative Finding"
        },
        {
          "codedValue": "NORMAL",
          "coding": {
            "code": "C14165",
            "codeSystem": "nci:ExtCodeID"
          },
          "decode": "Normal"
        },
        {
          "codedValue": "NOT DETECTED",
          "coding": {
            "code": "C191300",
            "codeSystem": "nci:ExtCodeID"
          },
          "decode": "Not Detected"
        },
        {
          "codedValue": "POSITIVE",
          "coding": {
            "code": "C38758",
            "codeSystem": "nci:ExtCodeID"
          },
          "decode": "Positive Finding"
        },
        {
          "codedValue": "PRESENT",
          "coding": {
            "code": "C25626",
            "codeSystem": "nci:ExtCodeID"
          },
          "decode": "Present"
        },
        {
          "codedValue": "STRONGLY POSITIVE",
          "coding": {
            "code": "C191301",
            "codeSystem": "nci:ExtCodeID"
          },
          "decode": "Strongly Positive"
        },
        {
          "codedValue": "ABNORMAL",
          "coding": {
            "code": "C25401",
            "codeSystem": "nci:ExtCodeID"
          },
          "decode": "Abnormal"
        },
        {
          "codedValue": "ABSENT",
          "coding": {
            "code": "C48190",
            "codeSystem": "nci:ExtCodeID"
          },
          "decode": "Absent"
        },
        {
          "codedValue": "BORDERLINE",
          "coding": {
            "code": "C14157",
            "codeSystem": "nci:ExtCodeID"
          },
          "decode": "Borderline"
        },
        {
          "codedValue": "DETECTED",
          "coding": {
            "code": "C191719",
            "codeSystem": "nci:ExtCodeID"
          },
          "decode": "Detected Finding"
        },
        {
          "codedValue": "INDETERMINATE",
          "coding": {
            "code": "C48658",
            "codeSystem": "nci:ExtCodeID"
          },
          "decode": "Indeterminate"
        },
        {
          "codedValue": "NEGATIVE",
          "coding": {
            "code": "C38757",
            "codeSystem": "nci:ExtCodeID"
          },
          "decode": "Negative Finding"
        },
        {
          "codedValue": "NORMAL",
          "coding": {
            "code": "C14165",
            "codeSystem": "nci:ExtCodeID"
          },
          "decode": "Normal"
        },
        {
          "codedValue": "NOT DETECTED",
          "coding": {
            "code": "C191300",
            "codeSystem": "nci:ExtCodeID"
          },
          "decode": "Not Detected"
        },
        {
          "codedValue": "POSITIVE",
          "coding": {
            "code": "C38758",
            "codeSystem": "nci:ExtCodeID"
          },
          "decode": "Positive Finding"
        },
        {
          "codedValue": "PRESENT",
          "coding": {
            "code": "C25626",
            "codeSystem": "nci:ExtCodeID"
          },
          "decode": "Present"
        },
        {
          "codedValue": "STRONGLY POSITIVE",
          "coding": {
            "code": "C191301",
            "codeSystem": "nci:ExtCodeID"
          },
          "decode": "Strongly Positive"
        },
        {
          "codedValue": "ABNORMAL",
          "coding": {
            "code": "C25401",
            "codeSystem": "nci:ExtCodeID"
          },
          "decode": "Abnormal"
        },
        {
          "codedValue": "ABSENT",
          "coding": {
            "code": "C48190",
            "codeSystem": "nci:ExtCodeID"
          },
          "decode": "Absent"
        },
        {
          "codedValue": "BORDERLINE",
          "coding": {
            "code": "C14157",
            "codeSystem": "nci:ExtCodeID"
          },
          "decode": "Borderline"
        },
        {
          "codedValue": "DETECTED",
          "coding": {
            "code": "C191719",
            "codeSystem": "nci:ExtCodeID"
          },
          "decode": "Detected Finding"
        },
        {
          "codedValue": "INDETERMINATE",
          "coding": {
            "code": "C48658",
            "codeSystem": "nci:ExtCodeID"
          },
          "decode": "Indeterminate"
        },
        {
          "codedValue": "NEGATIVE",
          "coding": {
            "code": "C38757",
            "codeSystem": "nci:ExtCodeID"
          },
          "decode": "Negative Finding"
        },
        {
          "codedValue": "NORMAL",
          "coding": {
            "code": "C14165",
            "codeSystem": "nci:ExtCodeID"
          },
          "decode": "Normal"
        },
        {
          "codedValue": "NOT DETECTED",
          "coding": {
            "code": "C191300",
            "codeSystem": "nci:ExtCodeID"
          },
          "decode": "Not Detected"
        },
        {
          "codedValue": "POSITIVE",
          "coding": {
            "code": "C38758",
            "codeSystem": "nci:ExtCodeID"
          },
          "decode": "Positive Finding"
        },
        {
          "codedValue": "PRESENT",
          "coding": {
            "code": "C25626",
            "codeSystem": "nci:ExtCodeID"
          },
          "decode": "Present"
        },
        {
          "codedValue": "STRONGLY POSITIVE",
          "coding": {
            "code": "C191301",
            "codeSystem": "nci:ExtCodeID"
          },
          "decode": "Strongly Positive"
        },
        {
          "codedValue": "ABNORMAL",
          "coding": {
            "code": "C25401",
            "codeSystem": "nci:ExtCodeID"
          },
          "decode": "Abnormal"
        },
        {
          "codedValue": "ABSENT",
          "coding": {
            "code": "C48190",
            "codeSystem": "nci:ExtCodeID"
          },
          "decode": "Absent"
        },
        {
          "codedValue": "BORDERLINE",
          "coding": {
            "code": "C14157",
            "codeSystem": "nci:ExtCodeID"
          },
          "decode": "Borderline"
        },
        {
          "codedValue": "DETECTED",
          "coding": {
            "code": "C191719",
            "codeSystem": "nci:ExtCodeID"
          },
          "decode": "Detected Finding"
        },
        {
          "codedValue": "INDETERMINATE",
          "coding": {
            "code": "C48658",
            "codeSystem": "nci:ExtCodeID"
          },
          "decode": "Indeterminate"
        },
        {
          "codedValue": "NEGATIVE",
          "coding": {
            "code": "C38757",
            "codeSystem": "nci:ExtCodeID"
          },
          "decode": "Negative Finding"
        },
        {
          "codedValue": "NORMAL",
          "coding": {
            "code": "C14165",
            "codeSystem": "nci:ExtCodeID"
          },
          "decode": "Normal"
        },
        {
          "codedValue": "NOT DETECTED",
          "coding": {
            "code": "C191300",
            "codeSystem": "nci:ExtCodeID"
          },
          "decode": "Not Detected"
        },
        {
          "codedValue": "POSITIVE",
          "coding": {
            "code": "C38758",
            "codeSystem": "nci:ExtCodeID"
          },
          "decode": "Positive Finding"
        },
        {
          "codedValue": "PRESENT",
          "coding": {
            "code": "C25626",
            "codeSystem": "nci:ExtCodeID"
          },
          "decode": "Present"
        },
        {
          "codedValue": "STRONGLY POSITIVE",
          "coding": {
            "code": "C191301",
            "codeSystem": "nci:ExtCodeID"
          },
          "decode": "Strongly Positive"
        },
        {
          "codedValue": "ABNORMAL",
          "coding": {
            "code": "C25401",
            "codeSystem": "nci:ExtCodeID"
          },
          "decode": "Abnormal"
        },
        {
          "codedValue": "ABSENT",
          "coding": {
            "code": "C48190",
            "codeSystem": "nci:ExtCodeID"
          },
          "decode": "Absent"
        },
        {
          "codedValue": "BORDERLINE",
          "coding": {
            "code": "C14157",
            "codeSystem": "nci:ExtCodeID"
          },
          "decode": "Borderline"
        },
        {
          "codedValue": "DETECTED",
          "coding": {
            "code": "C191719",
            "codeSystem": "nci:ExtCodeID"
          },
          "decode": "Detected Finding"
        },
        {
          "codedValue": "INDETERMINATE",
          "coding": {
            "code": "C48658",
            "codeSystem": "nci:ExtCodeID"
          },
          "decode": "Indeterminate"
        },
        {
          "codedValue": "NEGATIVE",
          "coding": {
            "code": "C38757",
            "codeSystem": "nci:ExtCodeID"
          },
          "decode": "Negative Finding"
        },
        {
          "codedValue": "NORMAL",
          "coding": {
            "code": "C14165",
            "codeSystem": "nci:ExtCodeID"
          },
          "decode": "Normal"
        },
        {
          "codedValue": "NOT DETECTED",
          "coding": {
            "code": "C191300",
            "codeSystem": "nci:ExtCodeID"
          },
          "decode": "Not Detected"
        },
        {
          "codedValue": "POSITIVE",
          "coding": {
            "code": "C38758",
            "codeSystem": "nci:ExtCodeID"
          },
          "decode": "Positive Finding"
        },
        {
          "codedValue": "PRESENT",
          "coding": {
            "code": "C25626",
            "codeSystem": "nci:ExtCodeID"
          },
          "decode": "Present"
        },
        {
          "codedValue": "STRONGLY POSITIVE",
          "coding": {
            "code": "C191301",
            "codeSystem": "nci:ExtCodeID"
          },
          "decode": "Strongly Positive"
        },
        {
          "codedValue": "ABNORMAL",
          "coding": {
            "code": "C25401",
            "codeSystem": "nci:ExtCodeID"
          },
          "decode": "Abnormal"
        },
        {
          "codedValue": "ABSENT",
          "coding": {
            "code": "C48190",
            "codeSystem": "nci:ExtCodeID"
          },
          "decode": "Absent"
        },
        {
          "codedValue": "BORDERLINE",
          "coding": {
            "code": "C14157",
            "codeSystem": "nci:ExtCodeID"
          },
          "decode": "Borderline"
        },
        {
          "codedValue": "DETECTED",
          "coding": {
            "code": "C191719",
            "codeSystem": "nci:ExtCodeID"
          },
          "decode": "Detected Finding"
        },
        {
          "codedValue": "INDETERMINATE",
          "coding": {
            "code": "C48658",
            "codeSystem": "nci:ExtCodeID"
          },
          "decode": "Indeterminate"
        },
        {
          "codedValue": "NEGATIVE",
          "coding": {
            "code": "C38757",
            "codeSystem": "nci:ExtCodeID"
          },
          "decode": "Negative Finding"
        },
        {
          "codedValue": "NORMAL",
          "coding": {
            "code": "C14165",
            "codeSystem": "nci:ExtCodeID"
          },
          "decode": "Normal"
        },
        {
          "codedValue": "NOT DETECTED",
          "coding": {
            "code": "C191300",
            "codeSystem": "nci:ExtCodeID"
          },
          "decode": "Not Detected"
        },
        {
          "codedValue": "POSITIVE",
          "coding": {
            "code": "C38758",
            "codeSystem": "nci:ExtCodeID"
          },
          "decode": "Positive Finding"
        },
        {
          "codedValue": "PRESENT",
          "coding": {
            "code": "C25626",
            "codeSystem": "nci:ExtCodeID"
          },
          "decode": "Present"
        },
        {
          "codedValue": "STRONGLY POSITIVE",
          "coding": {
            "code": "C191301",
            "codeSystem": "nci:ExtCodeID"
          },
          "decode": "Strongly Positive"
        },
        {
          "codedValue": "ABNORMAL",
          "coding": {
            "code": "C25401",
            "codeSystem": "nci:ExtCodeID"
          },
          "decode": "Abnormal"
        },
        {
          "codedValue": "ABSENT",
          "coding": {
            "code": "C48190",
            "codeSystem": "nci:ExtCodeID"
          },
          "decode": "Absent"
        },
        {
          "codedValue": "BORDERLINE",
          "coding": {
            "code": "C14157",
            "codeSystem": "nci:ExtCodeID"
          },
          "decode": "Borderline"
        },
        {
          "codedValue": "DETECTED",
          "coding": {
            "code": "C191719",
            "codeSystem": "nci:ExtCodeID"
          },
          "decode": "Detected Finding"
        },
        {
          "codedValue": "INDETERMINATE",
          "coding": {
            "code": "C48658",
            "codeSystem": "nci:ExtCodeID"
          },
          "decode": "Indeterminate"
        },
        {
          "codedValue": "NEGATIVE",
          "coding": {
            "code": "C38757",
            "codeSystem": "nci:ExtCodeID"
          },
          "decode": "Negative Finding"
        },
        {
          "codedValue": "NORMAL",
          "coding": {
            "code": "C14165",
            "codeSystem": "nci:ExtCodeID"
          },
          "decode": "Normal"
        },
        {
          "codedValue": "NOT DETECTED",
          "coding": {
            "code": "C191300",
            "codeSystem": "nci:ExtCodeID"
          },
          "decode": "Not Detected"
        },
        {
          "codedValue": "POSITIVE",
          "coding": {
            "code": "C38758",
            "codeSystem": "nci:ExtCodeID"
          },
          "decode": "Positive Finding"
        },
        {
          "codedValue": "PRESENT",
          "coding": {
            "code": "C25626",
            "codeSystem": "nci:ExtCodeID"
          },
          "decode": "Present"
        },
        {
          "codedValue": "STRONGLY POSITIVE",
          "coding": {
            "code": "C191301",
            "codeSystem": "nci:ExtCodeID"
          },
          "decode": "Strongly Positive"
        }
      ]
    },
    {
      "OID": "CL.C103330",
      "name": "Subject Characteristic Test Name",
      "dataType": "text",
      "coding": [
        {
          "code": "C103330",
          "codeSystem": "nci:ExtCodeID"
        }
      ],
      "standard": "STD.2",
      "codeListItems": [
        {
          "codedValue": "Age Started Smoking",
          "coding": {
            "code": "C127060",
            "codeSystem": "nci:ExtCodeID"
          },
          "decode": "Age When First Smoked a Cigarette"
        },
        {
          "codedValue": "Appropriate Developmental Age Indicator",
          "coding": {
            "code": "C171499",
            "codeSystem": "nci:ExtCodeID"
          },
          "decode": "Appropriate Developmental Age Indicator"
        },
        {
          "codedValue": "Birth Country Code",
          "coding": {
            "code": "C93516",
            "codeSystem": "nci:ExtCodeID"
          },
          "decode": "Birth Country Code"
        },
        {
          "codedValue": "Birth Country",
          "coding": {
            "code": "C200441",
            "codeSystem": "nci:ExtCodeID"
          },
          "decode": "Birth Country"
        },
        {
          "codedValue": "Birth Plurality",
          "coding": {
            "code": "C198361",
            "codeSystem": "nci:ExtCodeID"
          },
          "decode": "Birth Plurality"
        },
        {
          "codedValue": "Breast Fed Indicator",
          "coding": {
            "code": "C112233",
            "codeSystem": "nci:ExtCodeID"
          },
          "decode": "Breast Fed Indicator"
        },
        {
          "codedValue": "CDC HIV High Risk Donor Indicator",
          "coding": {
            "code": "C139271",
            "codeSystem": "nci:ExtCodeID"
          },
          "decode": "CDC HIV High Risk Donor Indicator"
        },
        {
          "codedValue": "Contact Investigation Indicator",
          "coding": {
            "code": "C202576",
            "codeSystem": "nci:ExtCodeID"
          },
          "decode": "Disease Contact Investigation Indicator"
        },
        {
          "codedValue": "Country of Permanent Address",
          "coding": {
            "code": "C176365",
            "codeSystem": "nci:ExtCodeID"
          },
          "decode": "Country of Permanent Address"
        },
        {
          "codedValue": "Country of Potential Disease Exposure",
          "coding": {
            "code": "C102612",
            "codeSystem": "nci:ExtCodeID"
          },
          "decode": "Country of Potential Disease Exposure"
        },
        {
          "codedValue": "County of Permanent Address",
          "coding": {
            "code": "C176362",
            "codeSystem": "nci:ExtCodeID"
          },
          "decode": "County of Permanent Address"
        },
        {
          "codedValue": "Age Started Smoking",
          "coding": {
            "code": "C127060",
            "codeSystem": "nci:ExtCodeID"
          },
          "decode": "Age When First Smoked a Cigarette"
        },
        {
          "codedValue": "Appropriate Developmental Age Indicator",
          "coding": {
            "code": "C171499",
            "codeSystem": "nci:ExtCodeID"
          },
          "decode": "Appropriate Developmental Age Indicator"
        },
        {
          "codedValue": "Birth Country Code",
          "coding": {
            "code": "C93516",
            "codeSystem": "nci:ExtCodeID"
          },
          "decode": "Birth Country Code"
        },
        {
          "codedValue": "Birth Country",
          "coding": {
            "code": "C200441",
            "codeSystem": "nci:ExtCodeID"
          },
          "decode": "Birth Country"
        },
        {
          "codedValue": "Birth Plurality",
          "coding": {
            "code": "C198361",
            "codeSystem": "nci:ExtCodeID"
          },
          "decode": "Birth Plurality"
        },
        {
          "codedValue": "Breast Fed Indicator",
          "coding": {
            "code": "C112233",
            "codeSystem": "nci:ExtCodeID"
          },
          "decode": "Breast Fed Indicator"
        },
        {
          "codedValue": "CDC HIV High Risk Donor Indicator",
          "coding": {
            "code": "C139271",
            "codeSystem": "nci:ExtCodeID"
          },
          "decode": "CDC HIV High Risk Donor Indicator"
        },
        {
          "codedValue": "Contact Investigation Indicator",
          "coding": {
            "code": "C202576",
            "codeSystem": "nci:ExtCodeID"
          },
          "decode": "Disease Contact Investigation Indicator"
        },
        {
          "codedValue": "Country of Permanent Address",
          "coding": {
            "code": "C176365",
            "codeSystem": "nci:ExtCodeID"
          },
          "decode": "Country of Permanent Address"
        },
        {
          "codedValue": "Country of Potential Disease Exposure",
          "coding": {
            "code": "C102612",
            "codeSystem": "nci:ExtCodeID"
          },
          "decode": "Country of Potential Disease Exposure"
        },
        {
          "codedValue": "County of Permanent Address",
          "coding": {
            "code": "C176362",
            "codeSystem": "nci:ExtCodeID"
          },
          "decode": "County of Permanent Address"
        },
        {
          "codedValue": "Age Started Smoking",
          "coding": {
            "code": "C127060",
            "codeSystem": "nci:ExtCodeID"
          },
          "decode": "Age When First Smoked a Cigarette"
        },
        {
          "codedValue": "Appropriate Developmental Age Indicator",
          "coding": {
            "code": "C171499",
            "codeSystem": "nci:ExtCodeID"
          },
          "decode": "Appropriate Developmental Age Indicator"
        },
        {
          "codedValue": "Birth Country Code",
          "coding": {
            "code": "C93516",
            "codeSystem": "nci:ExtCodeID"
          },
          "decode": "Birth Country Code"
        },
        {
          "codedValue": "Birth Country",
          "coding": {
            "code": "C200441",
            "codeSystem": "nci:ExtCodeID"
          },
          "decode": "Birth Country"
        },
        {
          "codedValue": "Birth Plurality",
          "coding": {
            "code": "C198361",
            "codeSystem": "nci:ExtCodeID"
          },
          "decode": "Birth Plurality"
        },
        {
          "codedValue": "Breast Fed Indicator",
          "coding": {
            "code": "C112233",
            "codeSystem": "nci:ExtCodeID"
          },
          "decode": "Breast Fed Indicator"
        },
        {
          "codedValue": "CDC HIV High Risk Donor Indicator",
          "coding": {
            "code": "C139271",
            "codeSystem": "nci:ExtCodeID"
          },
          "decode": "CDC HIV High Risk Donor Indicator"
        },
        {
          "codedValue": "Contact Investigation Indicator",
          "coding": {
            "code": "C202576",
            "codeSystem": "nci:ExtCodeID"
          },
          "decode": "Disease Contact Investigation Indicator"
        },
        {
          "codedValue": "Country of Permanent Address",
          "coding": {
            "code": "C176365",
            "codeSystem": "nci:ExtCodeID"
          },
          "decode": "Country of Permanent Address"
        },
        {
          "codedValue": "Country of Potential Disease Exposure",
          "coding": {
            "code": "C102612",
            "codeSystem": "nci:ExtCodeID"
          },
          "decode": "Country of Potential Disease Exposure"
        },
        {
          "codedValue": "County of Permanent Address",
          "coding": {
            "code": "C176362",
            "codeSystem": "nci:ExtCodeID"
          },
          "decode": "County of Permanent Address"
        },
        {
          "codedValue": "Age Started Smoking",
          "coding": {
            "code": "C127060",
            "codeSystem": "nci:ExtCodeID"
          },
          "decode": "Age When First Smoked a Cigarette"
        },
        {
          "codedValue": "Appropriate Developmental Age Indicator",
          "coding": {
            "code": "C171499",
            "codeSystem": "nci:ExtCodeID"
          },
          "decode": "Appropriate Developmental Age Indicator"
        },
        {
          "codedValue": "Birth Country Code",
          "coding": {
            "code": "C93516",
            "codeSystem": "nci:ExtCodeID"
          },
          "decode": "Birth Country Code"
        },
        {
          "codedValue": "Birth Country",
          "coding": {
            "code": "C200441",
            "codeSystem": "nci:ExtCodeID"
          },
          "decode": "Birth Country"
        },
        {
          "codedValue": "Birth Plurality",
          "coding": {
            "code": "C198361",
            "codeSystem": "nci:ExtCodeID"
          },
          "decode": "Birth Plurality"
        },
        {
          "codedValue": "Breast Fed Indicator",
          "coding": {
            "code": "C112233",
            "codeSystem": "nci:ExtCodeID"
          },
          "decode": "Breast Fed Indicator"
        },
        {
          "codedValue": "CDC HIV High Risk Donor Indicator",
          "coding": {
            "code": "C139271",
            "codeSystem": "nci:ExtCodeID"
          },
          "decode": "CDC HIV High Risk Donor Indicator"
        },
        {
          "codedValue": "Contact Investigation Indicator",
          "coding": {
            "code": "C202576",
            "codeSystem": "nci:ExtCodeID"
          },
          "decode": "Disease Contact Investigation Indicator"
        },
        {
          "codedValue": "Country of Permanent Address",
          "coding": {
            "code": "C176365",
            "codeSystem": "nci:ExtCodeID"
          },
          "decode": "Country of Permanent Address"
        },
        {
          "codedValue": "Country of Potential Disease Exposure",
          "coding": {
            "code": "C102612",
            "codeSystem": "nci:ExtCodeID"
          },
          "decode": "Country of Potential Disease Exposure"
        },
        {
          "codedValue": "County of Permanent Address",
          "coding": {
            "code": "C176362",
            "codeSystem": "nci:ExtCodeID"
          },
          "decode": "County of Permanent Address"
        },
        {
          "codedValue": "Age Started Smoking",
          "coding": {
            "code": "C127060",
            "codeSystem": "nci:ExtCodeID"
          },
          "decode": "Age When First Smoked a Cigarette"
        },
        {
          "codedValue": "Appropriate Developmental Age Indicator",
          "coding": {
            "code": "C171499",
            "codeSystem": "nci:ExtCodeID"
          },
          "decode": "Appropriate Developmental Age Indicator"
        },
        {
          "codedValue": "Birth Country Code",
          "coding": {
            "code": "C93516",
            "codeSystem": "nci:ExtCodeID"
          },
          "decode": "Birth Country Code"
        },
        {
          "codedValue": "Birth Country",
          "coding": {
            "code": "C200441",
            "codeSystem": "nci:ExtCodeID"
          },
          "decode": "Birth Country"
        },
        {
          "codedValue": "Birth Plurality",
          "coding": {
            "code": "C198361",
            "codeSystem": "nci:ExtCodeID"
          },
          "decode": "Birth Plurality"
        },
        {
          "codedValue": "Breast Fed Indicator",
          "coding": {
            "code": "C112233",
            "codeSystem": "nci:ExtCodeID"
          },
          "decode": "Breast Fed Indicator"
        },
        {
          "codedValue": "CDC HIV High Risk Donor Indicator",
          "coding": {
            "code": "C139271",
            "codeSystem": "nci:ExtCodeID"
          },
          "decode": "CDC HIV High Risk Donor Indicator"
        },
        {
          "codedValue": "Contact Investigation Indicator",
          "coding": {
            "code": "C202576",
            "codeSystem": "nci:ExtCodeID"
          },
          "decode": "Disease Contact Investigation Indicator"
        },
        {
          "codedValue": "Country of Permanent Address",
          "coding": {
            "code": "C176365",
            "codeSystem": "nci:ExtCodeID"
          },
          "decode": "Country of Permanent Address"
        },
        {
          "codedValue": "Country of Potential Disease Exposure",
          "coding": {
            "code": "C102612",
            "codeSystem": "nci:ExtCodeID"
          },
          "decode": "Country of Potential Disease Exposure"
        },
        {
          "codedValue": "County of Permanent Address",
          "coding": {
            "code": "C176362",
            "codeSystem": "nci:ExtCodeID"
          },
          "decode": "County of Permanent Address"
        },
        {
          "codedValue": "Age Started Smoking",
          "coding": {
            "code": "C127060",
            "codeSystem": "nci:ExtCodeID"
          },
          "decode": "Age When First Smoked a Cigarette"
        },
        {
          "codedValue": "Appropriate Developmental Age Indicator",
          "coding": {
            "code": "C171499",
            "codeSystem": "nci:ExtCodeID"
          },
          "decode": "Appropriate Developmental Age Indicator"
        },
        {
          "codedValue": "Birth Country Code",
          "coding": {
            "code": "C93516",
            "codeSystem": "nci:ExtCodeID"
          },
          "decode": "Birth Country Code"
        },
        {
          "codedValue": "Birth Country",
          "coding": {
            "code": "C200441",
            "codeSystem": "nci:ExtCodeID"
          },
          "decode": "Birth Country"
        },
        {
          "codedValue": "Birth Plurality",
          "coding": {
            "code": "C198361",
            "codeSystem": "nci:ExtCodeID"
          },
          "decode": "Birth Plurality"
        },
        {
          "codedValue": "Breast Fed Indicator",
          "coding": {
            "code": "C112233",
            "codeSystem": "nci:ExtCodeID"
          },
          "decode": "Breast Fed Indicator"
        },
        {
          "codedValue": "CDC HIV High Risk Donor Indicator",
          "coding": {
            "code": "C139271",
            "codeSystem": "nci:ExtCodeID"
          },
          "decode": "CDC HIV High Risk Donor Indicator"
        },
        {
          "codedValue": "Contact Investigation Indicator",
          "coding": {
            "code": "C202576",
            "codeSystem": "nci:ExtCodeID"
          },
          "decode": "Disease Contact Investigation Indicator"
        },
        {
          "codedValue": "Country of Permanent Address",
          "coding": {
            "code": "C176365",
            "codeSystem": "nci:ExtCodeID"
          },
          "decode": "Country of Permanent Address"
        },
        {
          "codedValue": "Country of Potential Disease Exposure",
          "coding": {
            "code": "C102612",
            "codeSystem": "nci:ExtCodeID"
          },
          "decode": "Country of Potential Disease Exposure"
        },
        {
          "codedValue": "County of Permanent Address",
          "coding": {
            "code": "C176362",
            "codeSystem": "nci:ExtCodeID"
          },
          "decode": "County of Permanent Address"
        },
        {
          "codedValue": "Age Started Smoking",
          "coding": {
            "code": "C127060",
            "codeSystem": "nci:ExtCodeID"
          },
          "decode": "Age When First Smoked a Cigarette"
        },
        {
          "codedValue": "Appropriate Developmental Age Indicator",
          "coding": {
            "code": "C171499",
            "codeSystem": "nci:ExtCodeID"
          },
          "decode": "Appropriate Developmental Age Indicator"
        },
        {
          "codedValue": "Birth Country Code",
          "coding": {
            "code": "C93516",
            "codeSystem": "nci:ExtCodeID"
          },
          "decode": "Birth Country Code"
        },
        {
          "codedValue": "Birth Country",
          "coding": {
            "code": "C200441",
            "codeSystem": "nci:ExtCodeID"
          },
          "decode": "Birth Country"
        },
        {
          "codedValue": "Birth Plurality",
          "coding": {
            "code": "C198361",
            "codeSystem": "nci:ExtCodeID"
          },
          "decode": "Birth Plurality"
        },
        {
          "codedValue": "Breast Fed Indicator",
          "coding": {
            "code": "C112233",
            "codeSystem": "nci:ExtCodeID"
          },
          "decode": "Breast Fed Indicator"
        },
        {
          "codedValue": "CDC HIV High Risk Donor Indicator",
          "coding": {
            "code": "C139271",
            "codeSystem": "nci:ExtCodeID"
          },
          "decode": "CDC HIV High Risk Donor Indicator"
        },
        {
          "codedValue": "Contact Investigation Indicator",
          "coding": {
            "code": "C202576",
            "codeSystem": "nci:ExtCodeID"
          },
          "decode": "Disease Contact Investigation Indicator"
        },
        {
          "codedValue": "Country of Permanent Address",
          "coding": {
            "code": "C176365",
            "codeSystem": "nci:ExtCodeID"
          },
          "decode": "Country of Permanent Address"
        },
        {
          "codedValue": "Country of Potential Disease Exposure",
          "coding": {
            "code": "C102612",
            "codeSystem": "nci:ExtCodeID"
          },
          "decode": "Country of Potential Disease Exposure"
        },
        {
          "codedValue": "County of Permanent Address",
          "coding": {
            "code": "C176362",
            "codeSystem": "nci:ExtCodeID"
          },
          "decode": "County of Permanent Address"
        },
        {
          "codedValue": "Age Started Smoking",
          "coding": {
            "code": "C127060",
            "codeSystem": "nci:ExtCodeID"
          },
          "decode": "Age When First Smoked a Cigarette"
        },
        {
          "codedValue": "Appropriate Developmental Age Indicator",
          "coding": {
            "code": "C171499",
            "codeSystem": "nci:ExtCodeID"
          },
          "decode": "Appropriate Developmental Age Indicator"
        },
        {
          "codedValue": "Birth Country Code",
          "coding": {
            "code": "C93516",
            "codeSystem": "nci:ExtCodeID"
          },
          "decode": "Birth Country Code"
        },
        {
          "codedValue": "Birth Country",
          "coding": {
            "code": "C200441",
            "codeSystem": "nci:ExtCodeID"
          },
          "decode": "Birth Country"
        },
        {
          "codedValue": "Birth Plurality",
          "coding": {
            "code": "C198361",
            "codeSystem": "nci:ExtCodeID"
          },
          "decode": "Birth Plurality"
        },
        {
          "codedValue": "Breast Fed Indicator",
          "coding": {
            "code": "C112233",
            "codeSystem": "nci:ExtCodeID"
          },
          "decode": "Breast Fed Indicator"
        },
        {
          "codedValue": "CDC HIV High Risk Donor Indicator",
          "coding": {
            "code": "C139271",
            "codeSystem": "nci:ExtCodeID"
          },
          "decode": "CDC HIV High Risk Donor Indicator"
        },
        {
          "codedValue": "Contact Investigation Indicator",
          "coding": {
            "code": "C202576",
            "codeSystem": "nci:ExtCodeID"
          },
          "decode": "Disease Contact Investigation Indicator"
        },
        {
          "codedValue": "Country of Permanent Address",
          "coding": {
            "code": "C176365",
            "codeSystem": "nci:ExtCodeID"
          },
          "decode": "Country of Permanent Address"
        },
        {
          "codedValue": "Country of Potential Disease Exposure",
          "coding": {
            "code": "C102612",
            "codeSystem": "nci:ExtCodeID"
          },
          "decode": "Country of Potential Disease Exposure"
        },
        {
          "codedValue": "County of Permanent Address",
          "coding": {
            "code": "C176362",
            "codeSystem": "nci:ExtCodeID"
          },
          "decode": "County of Permanent Address"
        },
        {
          "codedValue": "Age Started Smoking",
          "coding": {
            "code": "C127060",
            "codeSystem": "nci:ExtCodeID"
          },
          "decode": "Age When First Smoked a Cigarette"
        },
        {
          "codedValue": "Appropriate Developmental Age Indicator",
          "coding": {
            "code": "C171499",
            "codeSystem": "nci:ExtCodeID"
          },
          "decode": "Appropriate Developmental Age Indicator"
        },
        {
          "codedValue": "Birth Country Code",
          "coding": {
            "code": "C93516",
            "codeSystem": "nci:ExtCodeID"
          },
          "decode": "Birth Country Code"
        },
        {
          "codedValue": "Birth Country",
          "coding": {
            "code": "C200441",
            "codeSystem": "nci:ExtCodeID"
          },
          "decode": "Birth Country"
        },
        {
          "codedValue": "Birth Plurality",
          "coding": {
            "code": "C198361",
            "codeSystem": "nci:ExtCodeID"
          },
          "decode": "Birth Plurality"
        },
        {
          "codedValue": "Breast Fed Indicator",
          "coding": {
            "code": "C112233",
            "codeSystem": "nci:ExtCodeID"
          },
          "decode": "Breast Fed Indicator"
        },
        {
          "codedValue": "CDC HIV High Risk Donor Indicator",
          "coding": {
            "code": "C139271",
            "codeSystem": "nci:ExtCodeID"
          },
          "decode": "CDC HIV High Risk Donor Indicator"
        },
        {
          "codedValue": "Contact Investigation Indicator",
          "coding": {
            "code": "C202576",
            "codeSystem": "nci:ExtCodeID"
          },
          "decode": "Disease Contact Investigation Indicator"
        },
        {
          "codedValue": "Country of Permanent Address",
          "coding": {
            "code": "C176365",
            "codeSystem": "nci:ExtCodeID"
          },
          "decode": "Country of Permanent Address"
        },
        {
          "codedValue": "Country of Potential Disease Exposure",
          "coding": {
            "code": "C102612",
            "codeSystem": "nci:ExtCodeID"
          },
          "decode": "Country of Potential Disease Exposure"
        },
        {
          "codedValue": "County of Permanent Address",
          "coding": {
            "code": "C176362",
            "codeSystem": "nci:ExtCodeID"
          },
          "decode": "County of Permanent Address"
        },
        {
          "codedValue": "Age Started Smoking",
          "coding": {
            "code": "C127060",
            "codeSystem": "nci:ExtCodeID"
          },
          "decode": "Age When First Smoked a Cigarette"
        },
        {
          "codedValue": "Appropriate Developmental Age Indicator",
          "coding": {
            "code": "C171499",
            "codeSystem": "nci:ExtCodeID"
          },
          "decode": "Appropriate Developmental Age Indicator"
        },
        {
          "codedValue": "Birth Country Code",
          "coding": {
            "code": "C93516",
            "codeSystem": "nci:ExtCodeID"
          },
          "decode": "Birth Country Code"
        },
        {
          "codedValue": "Birth Country",
          "coding": {
            "code": "C200441",
            "codeSystem": "nci:ExtCodeID"
          },
          "decode": "Birth Country"
        },
        {
          "codedValue": "Birth Plurality",
          "coding": {
            "code": "C198361",
            "codeSystem": "nci:ExtCodeID"
          },
          "decode": "Birth Plurality"
        },
        {
          "codedValue": "Breast Fed Indicator",
          "coding": {
            "code": "C112233",
            "codeSystem": "nci:ExtCodeID"
          },
          "decode": "Breast Fed Indicator"
        },
        {
          "codedValue": "CDC HIV High Risk Donor Indicator",
          "coding": {
            "code": "C139271",
            "codeSystem": "nci:ExtCodeID"
          },
          "decode": "CDC HIV High Risk Donor Indicator"
        },
        {
          "codedValue": "Contact Investigation Indicator",
          "coding": {
            "code": "C202576",
            "codeSystem": "nci:ExtCodeID"
          },
          "decode": "Disease Contact Investigation Indicator"
        },
        {
          "codedValue": "Country of Permanent Address",
          "coding": {
            "code": "C176365",
            "codeSystem": "nci:ExtCodeID"
          },
          "decode": "Country of Permanent Address"
        },
        {
          "codedValue": "Country of Potential Disease Exposure",
          "coding": {
            "code": "C102612",
            "codeSystem": "nci:ExtCodeID"
          },
          "decode": "Country of Potential Disease Exposure"
        },
        {
          "codedValue": "County of Permanent Address",
          "coding": {
            "code": "C176362",
            "codeSystem": "nci:ExtCodeID"
          },
          "decode": "County of Permanent Address"
        },
        {
          "codedValue": "Age Started Smoking",
          "coding": {
            "code": "C127060",
            "codeSystem": "nci:ExtCodeID"
          },
          "decode": "Age When First Smoked a Cigarette"
        },
        {
          "codedValue": "Appropriate Developmental Age Indicator",
          "coding": {
            "code": "C171499",
            "codeSystem": "nci:ExtCodeID"
          },
          "decode": "Appropriate Developmental Age Indicator"
        },
        {
          "codedValue": "Birth Country Code",
          "coding": {
            "code": "C93516",
            "codeSystem": "nci:ExtCodeID"
          },
          "decode": "Birth Country Code"
        },
        {
          "codedValue": "Birth Country",
          "coding": {
            "code": "C200441",
            "codeSystem": "nci:ExtCodeID"
          },
          "decode": "Birth Country"
        },
        {
          "codedValue": "Birth Plurality",
          "coding": {
            "code": "C198361",
            "codeSystem": "nci:ExtCodeID"
          },
          "decode": "Birth Plurality"
        },
        {
          "codedValue": "Breast Fed Indicator",
          "coding": {
            "code": "C112233",
            "codeSystem": "nci:ExtCodeID"
          },
          "decode": "Breast Fed Indicator"
        },
        {
          "codedValue": "CDC HIV High Risk Donor Indicator",
          "coding": {
            "code": "C139271",
            "codeSystem": "nci:ExtCodeID"
          },
          "decode": "CDC HIV High Risk Donor Indicator"
        },
        {
          "codedValue": "Contact Investigation Indicator",
          "coding": {
            "code": "C202576",
            "codeSystem": "nci:ExtCodeID"
          },
          "decode": "Disease Contact Investigation Indicator"
        },
        {
          "codedValue": "Country of Permanent Address",
          "coding": {
            "code": "C176365",
            "codeSystem": "nci:ExtCodeID"
          },
          "decode": "Country of Permanent Address"
        },
        {
          "codedValue": "Country of Potential Disease Exposure",
          "coding": {
            "code": "C102612",
            "codeSystem": "nci:ExtCodeID"
          },
          "decode": "Country of Potential Disease Exposure"
        },
        {
          "codedValue": "County of Permanent Address",
          "coding": {
            "code": "C176362",
            "codeSystem": "nci:ExtCodeID"
          },
          "decode": "County of Permanent Address"
        }
      ]
    },
    {
      "OID": "CL.C65047",
      "name": "Laboratory Test Code",
      "dataType": "text",
      "coding": [
        {
          "code": "C65047",
          "codeSystem": "nci:ExtCodeID"
        }
      ],
      "standard": "STD.2",
      "codeListItems": [
        {
          "codedValue": "A1AGLP",
          "coding": {
            "code": "C100429",
            "codeSystem": "nci:ExtCodeID"
          },
          "decode": "Alpha-1 Acid Glycoprotein Measurement"
        },
        {
          "codedValue": "A1ANTRPF",
          "coding": {
            "code": "C181404",
            "codeSystem": "nci:ExtCodeID"
          },
          "decode": "Functional Alpha-1 Antitrypsin Measurement"
        },
        {
          "codedValue": "A1ANTRYP",
          "coding": {
            "code": "C80167",
            "codeSystem": "nci:ExtCodeID"
          },
          "decode": "Alpha-1 Antitrypsin Measurement"
        },
        {
          "codedValue": "A1MCGEXR",
          "coding": {
            "code": "C186022",
            "codeSystem": "nci:ExtCodeID"
          },
          "decode": "Alpha-1 Microglobulin Excretion Rate Measurement"
        },
        {
          "codedValue": "A1MCREAT",
          "coding": {
            "code": "C100462",
            "codeSystem": "nci:ExtCodeID"
          },
          "decode": "Alpha-1 Microglobulin to Creatinine Ratio Measurement"
        },
        {
          "codedValue": "A1MICG",
          "coding": {
            "code": "C100461",
            "codeSystem": "nci:ExtCodeID"
          },
          "decode": "Alpha-1 Microglobulin Measurement"
        },
        {
          "codedValue": "A2MACG",
          "coding": {
            "code": "C80168",
            "codeSystem": "nci:ExtCodeID"
          },
          "decode": "Alpha-2 Macroglobulin Measurement"
        },
        {
          "codedValue": "A73OXC",
          "coding": {
            "code": "C172524",
            "codeSystem": "nci:ExtCodeID"
          },
          "decode": "7-alpha-Hydroxy-4-cholesten-3-one Measurement"
        },
        {
          "codedValue": "AAMAPAC",
          "coding": {
            "code": "C154761",
            "codeSystem": "nci:ExtCodeID"
          },
          "decode": "Alpha-Aminoadipic Acid Measurement"
        },
        {
          "codedValue": "AAMBTAC",
          "coding": {
            "code": "C154759",
            "codeSystem": "nci:ExtCodeID"
          },
          "decode": "Alpha-Aminobutyric Acid Measurement"
        },
        {
          "codedValue": "AAP",
          "coding": {
            "code": "C100430",
            "codeSystem": "nci:ExtCodeID"
          },
          "decode": "Alanine Aminopeptidase Measurement"
        },
        {
          "codedValue": "A1AGLP",
          "coding": {
            "code": "C100429",
            "codeSystem": "nci:ExtCodeID"
          },
          "decode": "Alpha-1 Acid Glycoprotein Measurement"
        },
        {
          "codedValue": "A1ANTRPF",
          "coding": {
            "code": "C181404",
            "codeSystem": "nci:ExtCodeID"
          },
          "decode": "Functional Alpha-1 Antitrypsin Measurement"
        },
        {
          "codedValue": "A1ANTRYP",
          "coding": {
            "code": "C80167",
            "codeSystem": "nci:ExtCodeID"
          },
          "decode": "Alpha-1 Antitrypsin Measurement"
        },
        {
          "codedValue": "A1MCGEXR",
          "coding": {
            "code": "C186022",
            "codeSystem": "nci:ExtCodeID"
          },
          "decode": "Alpha-1 Microglobulin Excretion Rate Measurement"
        },
        {
          "codedValue": "A1MCREAT",
          "coding": {
            "code": "C100462",
            "codeSystem": "nci:ExtCodeID"
          },
          "decode": "Alpha-1 Microglobulin to Creatinine Ratio Measurement"
        },
        {
          "codedValue": "A1MICG",
          "coding": {
            "code": "C100461",
            "codeSystem": "nci:ExtCodeID"
          },
          "decode": "Alpha-1 Microglobulin Measurement"
        },
        {
          "codedValue": "A2MACG",
          "coding": {
            "code": "C80168",
            "codeSystem": "nci:ExtCodeID"
          },
          "decode": "Alpha-2 Macroglobulin Measurement"
        },
        {
          "codedValue": "A73OXC",
          "coding": {
            "code": "C172524",
            "codeSystem": "nci:ExtCodeID"
          },
          "decode": "7-alpha-Hydroxy-4-cholesten-3-one Measurement"
        },
        {
          "codedValue": "AAMAPAC",
          "coding": {
            "code": "C154761",
            "codeSystem": "nci:ExtCodeID"
          },
          "decode": "Alpha-Aminoadipic Acid Measurement"
        },
        {
          "codedValue": "AAMBTAC",
          "coding": {
            "code": "C154759",
            "codeSystem": "nci:ExtCodeID"
          },
          "decode": "Alpha-Aminobutyric Acid Measurement"
        },
        {
          "codedValue": "AAP",
          "coding": {
            "code": "C100430",
            "codeSystem": "nci:ExtCodeID"
          },
          "decode": "Alanine Aminopeptidase Measurement"
        },
        {
          "codedValue": "A1AGLP",
          "coding": {
            "code": "C100429",
            "codeSystem": "nci:ExtCodeID"
          },
          "decode": "Alpha-1 Acid Glycoprotein Measurement"
        },
        {
          "codedValue": "A1ANTRPF",
          "coding": {
            "code": "C181404",
            "codeSystem": "nci:ExtCodeID"
          },
          "decode": "Functional Alpha-1 Antitrypsin Measurement"
        },
        {
          "codedValue": "A1ANTRYP",
          "coding": {
            "code": "C80167",
            "codeSystem": "nci:ExtCodeID"
          },
          "decode": "Alpha-1 Antitrypsin Measurement"
        },
        {
          "codedValue": "A1MCGEXR",
          "coding": {
            "code": "C186022",
            "codeSystem": "nci:ExtCodeID"
          },
          "decode": "Alpha-1 Microglobulin Excretion Rate Measurement"
        },
        {
          "codedValue": "A1MCREAT",
          "coding": {
            "code": "C100462",
            "codeSystem": "nci:ExtCodeID"
          },
          "decode": "Alpha-1 Microglobulin to Creatinine Ratio Measurement"
        },
        {
          "codedValue": "A1MICG",
          "coding": {
            "code": "C100461",
            "codeSystem": "nci:ExtCodeID"
          },
          "decode": "Alpha-1 Microglobulin Measurement"
        },
        {
          "codedValue": "A2MACG",
          "coding": {
            "code": "C80168",
            "codeSystem": "nci:ExtCodeID"
          },
          "decode": "Alpha-2 Macroglobulin Measurement"
        },
        {
          "codedValue": "A73OXC",
          "coding": {
            "code": "C172524",
            "codeSystem": "nci:ExtCodeID"
          },
          "decode": "7-alpha-Hydroxy-4-cholesten-3-one Measurement"
        },
        {
          "codedValue": "AAMAPAC",
          "coding": {
            "code": "C154761",
            "codeSystem": "nci:ExtCodeID"
          },
          "decode": "Alpha-Aminoadipic Acid Measurement"
        },
        {
          "codedValue": "AAMBTAC",
          "coding": {
            "code": "C154759",
            "codeSystem": "nci:ExtCodeID"
          },
          "decode": "Alpha-Aminobutyric Acid Measurement"
        },
        {
          "codedValue": "AAP",
          "coding": {
            "code": "C100430",
            "codeSystem": "nci:ExtCodeID"
          },
          "decode": "Alanine Aminopeptidase Measurement"
        },
        {
          "codedValue": "A1AGLP",
          "coding": {
            "code": "C100429",
            "codeSystem": "nci:ExtCodeID"
          },
          "decode": "Alpha-1 Acid Glycoprotein Measurement"
        },
        {
          "codedValue": "A1ANTRPF",
          "coding": {
            "code": "C181404",
            "codeSystem": "nci:ExtCodeID"
          },
          "decode": "Functional Alpha-1 Antitrypsin Measurement"
        },
        {
          "codedValue": "A1ANTRYP",
          "coding": {
            "code": "C80167",
            "codeSystem": "nci:ExtCodeID"
          },
          "decode": "Alpha-1 Antitrypsin Measurement"
        },
        {
          "codedValue": "A1MCGEXR",
          "coding": {
            "code": "C186022",
            "codeSystem": "nci:ExtCodeID"
          },
          "decode": "Alpha-1 Microglobulin Excretion Rate Measurement"
        },
        {
          "codedValue": "A1MCREAT",
          "coding": {
            "code": "C100462",
            "codeSystem": "nci:ExtCodeID"
          },
          "decode": "Alpha-1 Microglobulin to Creatinine Ratio Measurement"
        },
        {
          "codedValue": "A1MICG",
          "coding": {
            "code": "C100461",
            "codeSystem": "nci:ExtCodeID"
          },
          "decode": "Alpha-1 Microglobulin Measurement"
        },
        {
          "codedValue": "A2MACG",
          "coding": {
            "code": "C80168",
            "codeSystem": "nci:ExtCodeID"
          },
          "decode": "Alpha-2 Macroglobulin Measurement"
        },
        {
          "codedValue": "A73OXC",
          "coding": {
            "code": "C172524",
            "codeSystem": "nci:ExtCodeID"
          },
          "decode": "7-alpha-Hydroxy-4-cholesten-3-one Measurement"
        },
        {
          "codedValue": "AAMAPAC",
          "coding": {
            "code": "C154761",
            "codeSystem": "nci:ExtCodeID"
          },
          "decode": "Alpha-Aminoadipic Acid Measurement"
        },
        {
          "codedValue": "AAMBTAC",
          "coding": {
            "code": "C154759",
            "codeSystem": "nci:ExtCodeID"
          },
          "decode": "Alpha-Aminobutyric Acid Measurement"
        },
        {
          "codedValue": "AAP",
          "coding": {
            "code": "C100430",
            "codeSystem": "nci:ExtCodeID"
          },
          "decode": "Alanine Aminopeptidase Measurement"
        },
        {
          "codedValue": "A1AGLP",
          "coding": {
            "code": "C100429",
            "codeSystem": "nci:ExtCodeID"
          },
          "decode": "Alpha-1 Acid Glycoprotein Measurement"
        },
        {
          "codedValue": "A1ANTRPF",
          "coding": {
            "code": "C181404",
            "codeSystem": "nci:ExtCodeID"
          },
          "decode": "Functional Alpha-1 Antitrypsin Measurement"
        },
        {
          "codedValue": "A1ANTRYP",
          "coding": {
            "code": "C80167",
            "codeSystem": "nci:ExtCodeID"
          },
          "decode": "Alpha-1 Antitrypsin Measurement"
        },
        {
          "codedValue": "A1MCGEXR",
          "coding": {
            "code": "C186022",
            "codeSystem": "nci:ExtCodeID"
          },
          "decode": "Alpha-1 Microglobulin Excretion Rate Measurement"
        },
        {
          "codedValue": "A1MCREAT",
          "coding": {
            "code": "C100462",
            "codeSystem": "nci:ExtCodeID"
          },
          "decode": "Alpha-1 Microglobulin to Creatinine Ratio Measurement"
        },
        {
          "codedValue": "A1MICG",
          "coding": {
            "code": "C100461",
            "codeSystem": "nci:ExtCodeID"
          },
          "decode": "Alpha-1 Microglobulin Measurement"
        },
        {
          "codedValue": "A2MACG",
          "coding": {
            "code": "C80168",
            "codeSystem": "nci:ExtCodeID"
          },
          "decode": "Alpha-2 Macroglobulin Measurement"
        },
        {
          "codedValue": "A73OXC",
          "coding": {
            "code": "C172524",
            "codeSystem": "nci:ExtCodeID"
          },
          "decode": "7-alpha-Hydroxy-4-cholesten-3-one Measurement"
        },
        {
          "codedValue": "AAMAPAC",
          "coding": {
            "code": "C154761",
            "codeSystem": "nci:ExtCodeID"
          },
          "decode": "Alpha-Aminoadipic Acid Measurement"
        },
        {
          "codedValue": "AAMBTAC",
          "coding": {
            "code": "C154759",
            "codeSystem": "nci:ExtCodeID"
          },
          "decode": "Alpha-Aminobutyric Acid Measurement"
        },
        {
          "codedValue": "AAP",
          "coding": {
            "code": "C100430",
            "codeSystem": "nci:ExtCodeID"
          },
          "decode": "Alanine Aminopeptidase Measurement"
        },
        {
          "codedValue": "A1AGLP",
          "coding": {
            "code": "C100429",
            "codeSystem": "nci:ExtCodeID"
          },
          "decode": "Alpha-1 Acid Glycoprotein Measurement"
        },
        {
          "codedValue": "A1ANTRPF",
          "coding": {
            "code": "C181404",
            "codeSystem": "nci:ExtCodeID"
          },
          "decode": "Functional Alpha-1 Antitrypsin Measurement"
        },
        {
          "codedValue": "A1ANTRYP",
          "coding": {
            "code": "C80167",
            "codeSystem": "nci:ExtCodeID"
          },
          "decode": "Alpha-1 Antitrypsin Measurement"
        },
        {
          "codedValue": "A1MCGEXR",
          "coding": {
            "code": "C186022",
            "codeSystem": "nci:ExtCodeID"
          },
          "decode": "Alpha-1 Microglobulin Excretion Rate Measurement"
        },
        {
          "codedValue": "A1MCREAT",
          "coding": {
            "code": "C100462",
            "codeSystem": "nci:ExtCodeID"
          },
          "decode": "Alpha-1 Microglobulin to Creatinine Ratio Measurement"
        },
        {
          "codedValue": "A1MICG",
          "coding": {
            "code": "C100461",
            "codeSystem": "nci:ExtCodeID"
          },
          "decode": "Alpha-1 Microglobulin Measurement"
        },
        {
          "codedValue": "A2MACG",
          "coding": {
            "code": "C80168",
            "codeSystem": "nci:ExtCodeID"
          },
          "decode": "Alpha-2 Macroglobulin Measurement"
        },
        {
          "codedValue": "A73OXC",
          "coding": {
            "code": "C172524",
            "codeSystem": "nci:ExtCodeID"
          },
          "decode": "7-alpha-Hydroxy-4-cholesten-3-one Measurement"
        },
        {
          "codedValue": "AAMAPAC",
          "coding": {
            "code": "C154761",
            "codeSystem": "nci:ExtCodeID"
          },
          "decode": "Alpha-Aminoadipic Acid Measurement"
        },
        {
          "codedValue": "AAMBTAC",
          "coding": {
            "code": "C154759",
            "codeSystem": "nci:ExtCodeID"
          },
          "decode": "Alpha-Aminobutyric Acid Measurement"
        },
        {
          "codedValue": "AAP",
          "coding": {
            "code": "C100430",
            "codeSystem": "nci:ExtCodeID"
          },
          "decode": "Alanine Aminopeptidase Measurement"
        },
        {
          "codedValue": "A1AGLP",
          "coding": {
            "code": "C100429",
            "codeSystem": "nci:ExtCodeID"
          },
          "decode": "Alpha-1 Acid Glycoprotein Measurement"
        },
        {
          "codedValue": "A1ANTRPF",
          "coding": {
            "code": "C181404",
            "codeSystem": "nci:ExtCodeID"
          },
          "decode": "Functional Alpha-1 Antitrypsin Measurement"
        },
        {
          "codedValue": "A1ANTRYP",
          "coding": {
            "code": "C80167",
            "codeSystem": "nci:ExtCodeID"
          },
          "decode": "Alpha-1 Antitrypsin Measurement"
        },
        {
          "codedValue": "A1MCGEXR",
          "coding": {
            "code": "C186022",
            "codeSystem": "nci:ExtCodeID"
          },
          "decode": "Alpha-1 Microglobulin Excretion Rate Measurement"
        },
        {
          "codedValue": "A1MCREAT",
          "coding": {
            "code": "C100462",
            "codeSystem": "nci:ExtCodeID"
          },
          "decode": "Alpha-1 Microglobulin to Creatinine Ratio Measurement"
        },
        {
          "codedValue": "A1MICG",
          "coding": {
            "code": "C100461",
            "codeSystem": "nci:ExtCodeID"
          },
          "decode": "Alpha-1 Microglobulin Measurement"
        },
        {
          "codedValue": "A2MACG",
          "coding": {
            "code": "C80168",
            "codeSystem": "nci:ExtCodeID"
          },
          "decode": "Alpha-2 Macroglobulin Measurement"
        },
        {
          "codedValue": "A73OXC",
          "coding": {
            "code": "C172524",
            "codeSystem": "nci:ExtCodeID"
          },
          "decode": "7-alpha-Hydroxy-4-cholesten-3-one Measurement"
        },
        {
          "codedValue": "AAMAPAC",
          "coding": {
            "code": "C154761",
            "codeSystem": "nci:ExtCodeID"
          },
          "decode": "Alpha-Aminoadipic Acid Measurement"
        },
        {
          "codedValue": "AAMBTAC",
          "coding": {
            "code": "C154759",
            "codeSystem": "nci:ExtCodeID"
          },
          "decode": "Alpha-Aminobutyric Acid Measurement"
        },
        {
          "codedValue": "AAP",
          "coding": {
            "code": "C100430",
            "codeSystem": "nci:ExtCodeID"
          },
          "decode": "Alanine Aminopeptidase Measurement"
        },
        {
          "codedValue": "A1AGLP",
          "coding": {
            "code": "C100429",
            "codeSystem": "nci:ExtCodeID"
          },
          "decode": "Alpha-1 Acid Glycoprotein Measurement"
        },
        {
          "codedValue": "A1ANTRPF",
          "coding": {
            "code": "C181404",
            "codeSystem": "nci:ExtCodeID"
          },
          "decode": "Functional Alpha-1 Antitrypsin Measurement"
        },
        {
          "codedValue": "A1ANTRYP",
          "coding": {
            "code": "C80167",
            "codeSystem": "nci:ExtCodeID"
          },
          "decode": "Alpha-1 Antitrypsin Measurement"
        },
        {
          "codedValue": "A1MCGEXR",
          "coding": {
            "code": "C186022",
            "codeSystem": "nci:ExtCodeID"
          },
          "decode": "Alpha-1 Microglobulin Excretion Rate Measurement"
        },
        {
          "codedValue": "A1MCREAT",
          "coding": {
            "code": "C100462",
            "codeSystem": "nci:ExtCodeID"
          },
          "decode": "Alpha-1 Microglobulin to Creatinine Ratio Measurement"
        },
        {
          "codedValue": "A1MICG",
          "coding": {
            "code": "C100461",
            "codeSystem": "nci:ExtCodeID"
          },
          "decode": "Alpha-1 Microglobulin Measurement"
        },
        {
          "codedValue": "A2MACG",
          "coding": {
            "code": "C80168",
            "codeSystem": "nci:ExtCodeID"
          },
          "decode": "Alpha-2 Macroglobulin Measurement"
        },
        {
          "codedValue": "A73OXC",
          "coding": {
            "code": "C172524",
            "codeSystem": "nci:ExtCodeID"
          },
          "decode": "7-alpha-Hydroxy-4-cholesten-3-one Measurement"
        },
        {
          "codedValue": "AAMAPAC",
          "coding": {
            "code": "C154761",
            "codeSystem": "nci:ExtCodeID"
          },
          "decode": "Alpha-Aminoadipic Acid Measurement"
        },
        {
          "codedValue": "AAMBTAC",
          "coding": {
            "code": "C154759",
            "codeSystem": "nci:ExtCodeID"
          },
          "decode": "Alpha-Aminobutyric Acid Measurement"
        },
        {
          "codedValue": "AAP",
          "coding": {
            "code": "C100430",
            "codeSystem": "nci:ExtCodeID"
          },
          "decode": "Alanine Aminopeptidase Measurement"
        },
        {
          "codedValue": "A1AGLP",
          "coding": {
            "code": "C100429",
            "codeSystem": "nci:ExtCodeID"
          },
          "decode": "Alpha-1 Acid Glycoprotein Measurement"
        },
        {
          "codedValue": "A1ANTRPF",
          "coding": {
            "code": "C181404",
            "codeSystem": "nci:ExtCodeID"
          },
          "decode": "Functional Alpha-1 Antitrypsin Measurement"
        },
        {
          "codedValue": "A1ANTRYP",
          "coding": {
            "code": "C80167",
            "codeSystem": "nci:ExtCodeID"
          },
          "decode": "Alpha-1 Antitrypsin Measurement"
        },
        {
          "codedValue": "A1MCGEXR",
          "coding": {
            "code": "C186022",
            "codeSystem": "nci:ExtCodeID"
          },
          "decode": "Alpha-1 Microglobulin Excretion Rate Measurement"
        },
        {
          "codedValue": "A1MCREAT",
          "coding": {
            "code": "C100462",
            "codeSystem": "nci:ExtCodeID"
          },
          "decode": "Alpha-1 Microglobulin to Creatinine Ratio Measurement"
        },
        {
          "codedValue": "A1MICG",
          "coding": {
            "code": "C100461",
            "codeSystem": "nci:ExtCodeID"
          },
          "decode": "Alpha-1 Microglobulin Measurement"
        },
        {
          "codedValue": "A2MACG",
          "coding": {
            "code": "C80168",
            "codeSystem": "nci:ExtCodeID"
          },
          "decode": "Alpha-2 Macroglobulin Measurement"
        },
        {
          "codedValue": "A73OXC",
          "coding": {
            "code": "C172524",
            "codeSystem": "nci:ExtCodeID"
          },
          "decode": "7-alpha-Hydroxy-4-cholesten-3-one Measurement"
        },
        {
          "codedValue": "AAMAPAC",
          "coding": {
            "code": "C154761",
            "codeSystem": "nci:ExtCodeID"
          },
          "decode": "Alpha-Aminoadipic Acid Measurement"
        },
        {
          "codedValue": "AAMBTAC",
          "coding": {
            "code": "C154759",
            "codeSystem": "nci:ExtCodeID"
          },
          "decode": "Alpha-Aminobutyric Acid Measurement"
        },
        {
          "codedValue": "AAP",
          "coding": {
            "code": "C100430",
            "codeSystem": "nci:ExtCodeID"
          },
          "decode": "Alanine Aminopeptidase Measurement"
        },
        {
          "codedValue": "A1AGLP",
          "coding": {
            "code": "C100429",
            "codeSystem": "nci:ExtCodeID"
          },
          "decode": "Alpha-1 Acid Glycoprotein Measurement"
        },
        {
          "codedValue": "A1ANTRPF",
          "coding": {
            "code": "C181404",
            "codeSystem": "nci:ExtCodeID"
          },
          "decode": "Functional Alpha-1 Antitrypsin Measurement"
        },
        {
          "codedValue": "A1ANTRYP",
          "coding": {
            "code": "C80167",
            "codeSystem": "nci:ExtCodeID"
          },
          "decode": "Alpha-1 Antitrypsin Measurement"
        },
        {
          "codedValue": "A1MCGEXR",
          "coding": {
            "code": "C186022",
            "codeSystem": "nci:ExtCodeID"
          },
          "decode": "Alpha-1 Microglobulin Excretion Rate Measurement"
        },
        {
          "codedValue": "A1MCREAT",
          "coding": {
            "code": "C100462",
            "codeSystem": "nci:ExtCodeID"
          },
          "decode": "Alpha-1 Microglobulin to Creatinine Ratio Measurement"
        },
        {
          "codedValue": "A1MICG",
          "coding": {
            "code": "C100461",
            "codeSystem": "nci:ExtCodeID"
          },
          "decode": "Alpha-1 Microglobulin Measurement"
        },
        {
          "codedValue": "A2MACG",
          "coding": {
            "code": "C80168",
            "codeSystem": "nci:ExtCodeID"
          },
          "decode": "Alpha-2 Macroglobulin Measurement"
        },
        {
          "codedValue": "A73OXC",
          "coding": {
            "code": "C172524",
            "codeSystem": "nci:ExtCodeID"
          },
          "decode": "7-alpha-Hydroxy-4-cholesten-3-one Measurement"
        },
        {
          "codedValue": "AAMAPAC",
          "coding": {
            "code": "C154761",
            "codeSystem": "nci:ExtCodeID"
          },
          "decode": "Alpha-Aminoadipic Acid Measurement"
        },
        {
          "codedValue": "AAMBTAC",
          "coding": {
            "code": "C154759",
            "codeSystem": "nci:ExtCodeID"
          },
          "decode": "Alpha-Aminobutyric Acid Measurement"
        },
        {
          "codedValue": "AAP",
          "coding": {
            "code": "C100430",
            "codeSystem": "nci:ExtCodeID"
          },
          "decode": "Alanine Aminopeptidase Measurement"
        }
      ]
    },
    {
      "OID": "CL.C66726",
      "name": "Dosage Form",
      "dataType": "text",
      "coding": [
        {
          "code": "C66726",
          "codeSystem": "nci:ExtCodeID"
        }
      ],
      "standard": "STD.2",
      "codeListItems": [
        {
          "codedValue": "AEROSOL",
          "coding": {
            "code": "C42887",
            "codeSystem": "nci:ExtCodeID"
          },
          "decode": "Aerosol Dosage Form"
        },
        {
          "codedValue": "AEROSOL, FOAM",
          "coding": {
            "code": "C42888",
            "codeSystem": "nci:ExtCodeID"
          },
          "decode": "Aerosol Foam Dosage Form"
        },
        {
          "codedValue": "AEROSOL, METERED",
          "coding": {
            "code": "C42960",
            "codeSystem": "nci:ExtCodeID"
          },
          "decode": "Metered Aerosol Dosage Form"
        },
        {
          "codedValue": "AEROSOL, POWDER",
          "coding": {
            "code": "C42971",
            "codeSystem": "nci:ExtCodeID"
          },
          "decode": "Powder Aerosol Dosage Form"
        },
        {
          "codedValue": "AEROSOL, SPRAY",
          "coding": {
            "code": "C42889",
            "codeSystem": "nci:ExtCodeID"
          },
          "decode": "Aerosol Spray Dosage Form"
        },
        {
          "codedValue": "BAR, CHEWABLE",
          "coding": {
            "code": "C42892",
            "codeSystem": "nci:ExtCodeID"
          },
          "decode": "Chewable Bar Dosage Form"
        },
        {
          "codedValue": "BEAD",
          "coding": {
            "code": "C42890",
            "codeSystem": "nci:ExtCodeID"
          },
          "decode": "Bead Dosage Form"
        },
        {
          "codedValue": "BEAD, IMPLANT, EXTENDED RELEASE",
          "coding": {
            "code": "C43451",
            "codeSystem": "nci:ExtCodeID"
          },
          "decode": "Extended Release Bead Implant Dosage Form"
        },
        {
          "codedValue": "BLOCK",
          "coding": {
            "code": "C42891",
            "codeSystem": "nci:ExtCodeID"
          },
          "decode": "Block Dosage Form"
        },
        {
          "codedValue": "CAPLET",
          "coding": {
            "code": "C97197",
            "codeSystem": "nci:ExtCodeID"
          },
          "decode": "Caplet Dosage Form"
        },
        {
          "codedValue": "CAPSULE",
          "coding": {
            "code": "C25158",
            "codeSystem": "nci:ExtCodeID"
          },
          "decode": "Capsule Dosage Form"
        },
        {
          "codedValue": "AEROSOL",
          "coding": {
            "code": "C42887",
            "codeSystem": "nci:ExtCodeID"
          },
          "decode": "Aerosol Dosage Form"
        },
        {
          "codedValue": "AEROSOL, FOAM",
          "coding": {
            "code": "C42888",
            "codeSystem": "nci:ExtCodeID"
          },
          "decode": "Aerosol Foam Dosage Form"
        },
        {
          "codedValue": "AEROSOL, METERED",
          "coding": {
            "code": "C42960",
            "codeSystem": "nci:ExtCodeID"
          },
          "decode": "Metered Aerosol Dosage Form"
        },
        {
          "codedValue": "AEROSOL, POWDER",
          "coding": {
            "code": "C42971",
            "codeSystem": "nci:ExtCodeID"
          },
          "decode": "Powder Aerosol Dosage Form"
        },
        {
          "codedValue": "AEROSOL, SPRAY",
          "coding": {
            "code": "C42889",
            "codeSystem": "nci:ExtCodeID"
          },
          "decode": "Aerosol Spray Dosage Form"
        },
        {
          "codedValue": "BAR, CHEWABLE",
          "coding": {
            "code": "C42892",
            "codeSystem": "nci:ExtCodeID"
          },
          "decode": "Chewable Bar Dosage Form"
        },
        {
          "codedValue": "BEAD",
          "coding": {
            "code": "C42890",
            "codeSystem": "nci:ExtCodeID"
          },
          "decode": "Bead Dosage Form"
        },
        {
          "codedValue": "BEAD, IMPLANT, EXTENDED RELEASE",
          "coding": {
            "code": "C43451",
            "codeSystem": "nci:ExtCodeID"
          },
          "decode": "Extended Release Bead Implant Dosage Form"
        },
        {
          "codedValue": "BLOCK",
          "coding": {
            "code": "C42891",
            "codeSystem": "nci:ExtCodeID"
          },
          "decode": "Block Dosage Form"
        },
        {
          "codedValue": "CAPLET",
          "coding": {
            "code": "C97197",
            "codeSystem": "nci:ExtCodeID"
          },
          "decode": "Caplet Dosage Form"
        },
        {
          "codedValue": "CAPSULE",
          "coding": {
            "code": "C25158",
            "codeSystem": "nci:ExtCodeID"
          },
          "decode": "Capsule Dosage Form"
        },
        {
          "codedValue": "AEROSOL",
          "coding": {
            "code": "C42887",
            "codeSystem": "nci:ExtCodeID"
          },
          "decode": "Aerosol Dosage Form"
        },
        {
          "codedValue": "AEROSOL, FOAM",
          "coding": {
            "code": "C42888",
            "codeSystem": "nci:ExtCodeID"
          },
          "decode": "Aerosol Foam Dosage Form"
        },
        {
          "codedValue": "AEROSOL, METERED",
          "coding": {
            "code": "C42960",
            "codeSystem": "nci:ExtCodeID"
          },
          "decode": "Metered Aerosol Dosage Form"
        },
        {
          "codedValue": "AEROSOL, POWDER",
          "coding": {
            "code": "C42971",
            "codeSystem": "nci:ExtCodeID"
          },
          "decode": "Powder Aerosol Dosage Form"
        },
        {
          "codedValue": "AEROSOL, SPRAY",
          "coding": {
            "code": "C42889",
            "codeSystem": "nci:ExtCodeID"
          },
          "decode": "Aerosol Spray Dosage Form"
        },
        {
          "codedValue": "BAR, CHEWABLE",
          "coding": {
            "code": "C42892",
            "codeSystem": "nci:ExtCodeID"
          },
          "decode": "Chewable Bar Dosage Form"
        },
        {
          "codedValue": "BEAD",
          "coding": {
            "code": "C42890",
            "codeSystem": "nci:ExtCodeID"
          },
          "decode": "Bead Dosage Form"
        },
        {
          "codedValue": "BEAD, IMPLANT, EXTENDED RELEASE",
          "coding": {
            "code": "C43451",
            "codeSystem": "nci:ExtCodeID"
          },
          "decode": "Extended Release Bead Implant Dosage Form"
        },
        {
          "codedValue": "BLOCK",
          "coding": {
            "code": "C42891",
            "codeSystem": "nci:ExtCodeID"
          },
          "decode": "Block Dosage Form"
        },
        {
          "codedValue": "CAPLET",
          "coding": {
            "code": "C97197",
            "codeSystem": "nci:ExtCodeID"
          },
          "decode": "Caplet Dosage Form"
        },
        {
          "codedValue": "CAPSULE",
          "coding": {
            "code": "C25158",
            "codeSystem": "nci:ExtCodeID"
          },
          "decode": "Capsule Dosage Form"
        },
        {
          "codedValue": "AEROSOL",
          "coding": {
            "code": "C42887",
            "codeSystem": "nci:ExtCodeID"
          },
          "decode": "Aerosol Dosage Form"
        },
        {
          "codedValue": "AEROSOL, FOAM",
          "coding": {
            "code": "C42888",
            "codeSystem": "nci:ExtCodeID"
          },
          "decode": "Aerosol Foam Dosage Form"
        },
        {
          "codedValue": "AEROSOL, METERED",
          "coding": {
            "code": "C42960",
            "codeSystem": "nci:ExtCodeID"
          },
          "decode": "Metered Aerosol Dosage Form"
        },
        {
          "codedValue": "AEROSOL, POWDER",
          "coding": {
            "code": "C42971",
            "codeSystem": "nci:ExtCodeID"
          },
          "decode": "Powder Aerosol Dosage Form"
        },
        {
          "codedValue": "AEROSOL, SPRAY",
          "coding": {
            "code": "C42889",
            "codeSystem": "nci:ExtCodeID"
          },
          "decode": "Aerosol Spray Dosage Form"
        },
        {
          "codedValue": "BAR, CHEWABLE",
          "coding": {
            "code": "C42892",
            "codeSystem": "nci:ExtCodeID"
          },
          "decode": "Chewable Bar Dosage Form"
        },
        {
          "codedValue": "BEAD",
          "coding": {
            "code": "C42890",
            "codeSystem": "nci:ExtCodeID"
          },
          "decode": "Bead Dosage Form"
        },
        {
          "codedValue": "BEAD, IMPLANT, EXTENDED RELEASE",
          "coding": {
            "code": "C43451",
            "codeSystem": "nci:ExtCodeID"
          },
          "decode": "Extended Release Bead Implant Dosage Form"
        },
        {
          "codedValue": "BLOCK",
          "coding": {
            "code": "C42891",
            "codeSystem": "nci:ExtCodeID"
          },
          "decode": "Block Dosage Form"
        },
        {
          "codedValue": "CAPLET",
          "coding": {
            "code": "C97197",
            "codeSystem": "nci:ExtCodeID"
          },
          "decode": "Caplet Dosage Form"
        },
        {
          "codedValue": "CAPSULE",
          "coding": {
            "code": "C25158",
            "codeSystem": "nci:ExtCodeID"
          },
          "decode": "Capsule Dosage Form"
        }
      ]
    },
    {
      "OID": "CL.C66727",
      "name": "Completion/Reason for Non-Completion",
      "dataType": "text",
      "coding": [
        {
          "code": "C66727",
          "codeSystem": "nci:ExtCodeID"
        }
      ],
      "standard": "STD.2",
      "codeListItems": [
        {
          "codedValue": "ADVERSE EVENT",
          "coding": {
            "code": "C41331",
            "codeSystem": "nci:ExtCodeID"
          },
          "decode": "Adverse Event"
        },
        {
          "codedValue": "APPROVED DRUG AVAILABLE FOR INDICATION",
          "coding": {
            "code": "C172573",
            "codeSystem": "nci:ExtCodeID"
          },
          "decode": "Approved Drug Available For Indication"
        },
        {
          "codedValue": "COMPLETED",
          "coding": {
            "code": "C25250",
            "codeSystem": "nci:ExtCodeID"
          },
          "decode": "Complete"
        },
        {
          "codedValue": "DEATH",
          "coding": {
            "code": "C28554",
            "codeSystem": "nci:ExtCodeID"
          },
          "decode": "Dead"
        },
        {
          "codedValue": "DISEASE RELAPSE",
          "coding": {
            "code": "C38155",
            "codeSystem": "nci:ExtCodeID"
          },
          "decode": "Recurrent Disease"
        },
        {
          "codedValue": "FAILURE TO MEET CONTINUATION CRITERIA",
          "coding": {
            "code": "C139236",
            "codeSystem": "nci:ExtCodeID"
          },
          "decode": "Failure To Meet Continuation Criteria"
        },
        {
          "codedValue": "FAILURE TO MEET RANDOMIZATION CRITERIA",
          "coding": {
            "code": "C105448",
            "codeSystem": "nci:ExtCodeID"
          },
          "decode": "Failure to Meet Randomization Criteria"
        },
        {
          "codedValue": "LACK OF EFFICACY",
          "coding": {
            "code": "C48226",
            "codeSystem": "nci:ExtCodeID"
          },
          "decode": "Lack of Efficacy"
        },
        {
          "codedValue": "LOGISTICAL PROBLEM",
          "coding": {
            "code": "C176343",
            "codeSystem": "nci:ExtCodeID"
          },
          "decode": "Logistical Problem With Clinical Study"
        },
        {
          "codedValue": "LOST TO FOLLOW-UP",
          "coding": {
            "code": "C48227",
            "codeSystem": "nci:ExtCodeID"
          },
          "decode": "Lost To Follow-Up"
        },
        {
          "codedValue": "MET ELIGIBILITY CRITERIA BUT NOT NEEDED",
          "coding": {
            "code": "C150884",
            "codeSystem": "nci:ExtCodeID"
          },
          "decode": "Subject Met Eligibility Criteria But Was Not Needed"
        }
      ]
    },
    {
      "OID": "CL.C66729",
      "name": "Route of Administration Response",
      "dataType": "text",
      "coding": [
        {
          "code": "C66729",
          "codeSystem": "nci:ExtCodeID"
        }
      ],
      "standard": "STD.2",
      "codeListItems": [
        {
          "codedValue": "AURICULAR (OTIC)",
          "coding": {
            "code": "C38192",
            "codeSystem": "nci:ExtCodeID"
          },
          "decode": "Auricular Route of Administration"
        },
        {
          "codedValue": "BUCCAL",
          "coding": {
            "code": "C38193",
            "codeSystem": "nci:ExtCodeID"
          },
          "decode": "Buccal Route of Administration"
        },
        {
          "codedValue": "CONJUNCTIVAL",
          "coding": {
            "code": "C38194",
            "codeSystem": "nci:ExtCodeID"
          },
          "decode": "Conjunctival Route of Administration"
        },
        {
          "codedValue": "CUTANEOUS",
          "coding": {
            "code": "C38675",
            "codeSystem": "nci:ExtCodeID"
          },
          "decode": "Cutaneous Route of Administration"
        },
        {
          "codedValue": "DENTAL",
          "coding": {
            "code": "C38197",
            "codeSystem": "nci:ExtCodeID"
          },
          "decode": "Dental Route of Administration"
        },
        {
          "codedValue": "DIETARY",
          "coding": {
            "code": "C78373",
            "codeSystem": "nci:ExtCodeID"
          },
          "decode": "Dietary Route of Administration"
        },
        {
          "codedValue": "ELECTRO-OSMOSIS",
          "coding": {
            "code": "C38633",
            "codeSystem": "nci:ExtCodeID"
          },
          "decode": "Electro-osmosis Route of Administration"
        },
        {
          "codedValue": "ENDOCERVICAL",
          "coding": {
            "code": "C38205",
            "codeSystem": "nci:ExtCodeID"
          },
          "decode": "Endocervical Route of Administration"
        },
        {
          "codedValue": "ENDOSINUSIAL",
          "coding": {
            "code": "C38206",
            "codeSystem": "nci:ExtCodeID"
          },
          "decode": "Endosinusial Route of Administration"
        },
        {
          "codedValue": "ENDOTRACHEAL",
          "coding": {
            "code": "C38208",
            "codeSystem": "nci:ExtCodeID"
          },
          "decode": "Endotracheal Route of Administration"
        },
        {
          "codedValue": "ENTERAL",
          "coding": {
            "code": "C38209",
            "codeSystem": "nci:ExtCodeID"
          },
          "decode": "Enteral Route of Administration"
        },
        {
          "codedValue": "AURICULAR (OTIC)",
          "coding": {
            "code": "C38192",
            "codeSystem": "nci:ExtCodeID"
          },
          "decode": "Auricular Route of Administration"
        },
        {
          "codedValue": "BUCCAL",
          "coding": {
            "code": "C38193",
            "codeSystem": "nci:ExtCodeID"
          },
          "decode": "Buccal Route of Administration"
        },
        {
          "codedValue": "CONJUNCTIVAL",
          "coding": {
            "code": "C38194",
            "codeSystem": "nci:ExtCodeID"
          },
          "decode": "Conjunctival Route of Administration"
        },
        {
          "codedValue": "CUTANEOUS",
          "coding": {
            "code": "C38675",
            "codeSystem": "nci:ExtCodeID"
          },
          "decode": "Cutaneous Route of Administration"
        },
        {
          "codedValue": "DENTAL",
          "coding": {
            "code": "C38197",
            "codeSystem": "nci:ExtCodeID"
          },
          "decode": "Dental Route of Administration"
        },
        {
          "codedValue": "DIETARY",
          "coding": {
            "code": "C78373",
            "codeSystem": "nci:ExtCodeID"
          },
          "decode": "Dietary Route of Administration"
        },
        {
          "codedValue": "ELECTRO-OSMOSIS",
          "coding": {
            "code": "C38633",
            "codeSystem": "nci:ExtCodeID"
          },
          "decode": "Electro-osmosis Route of Administration"
        },
        {
          "codedValue": "ENDOCERVICAL",
          "coding": {
            "code": "C38205",
            "codeSystem": "nci:ExtCodeID"
          },
          "decode": "Endocervical Route of Administration"
        },
        {
          "codedValue": "ENDOSINUSIAL",
          "coding": {
            "code": "C38206",
            "codeSystem": "nci:ExtCodeID"
          },
          "decode": "Endosinusial Route of Administration"
        },
        {
          "codedValue": "ENDOTRACHEAL",
          "coding": {
            "code": "C38208",
            "codeSystem": "nci:ExtCodeID"
          },
          "decode": "Endotracheal Route of Administration"
        },
        {
          "codedValue": "ENTERAL",
          "coding": {
            "code": "C38209",
            "codeSystem": "nci:ExtCodeID"
          },
          "decode": "Enteral Route of Administration"
        },
        {
          "codedValue": "AURICULAR (OTIC)",
          "coding": {
            "code": "C38192",
            "codeSystem": "nci:ExtCodeID"
          },
          "decode": "Auricular Route of Administration"
        },
        {
          "codedValue": "BUCCAL",
          "coding": {
            "code": "C38193",
            "codeSystem": "nci:ExtCodeID"
          },
          "decode": "Buccal Route of Administration"
        },
        {
          "codedValue": "CONJUNCTIVAL",
          "coding": {
            "code": "C38194",
            "codeSystem": "nci:ExtCodeID"
          },
          "decode": "Conjunctival Route of Administration"
        },
        {
          "codedValue": "CUTANEOUS",
          "coding": {
            "code": "C38675",
            "codeSystem": "nci:ExtCodeID"
          },
          "decode": "Cutaneous Route of Administration"
        },
        {
          "codedValue": "DENTAL",
          "coding": {
            "code": "C38197",
            "codeSystem": "nci:ExtCodeID"
          },
          "decode": "Dental Route of Administration"
        },
        {
          "codedValue": "DIETARY",
          "coding": {
            "code": "C78373",
            "codeSystem": "nci:ExtCodeID"
          },
          "decode": "Dietary Route of Administration"
        },
        {
          "codedValue": "ELECTRO-OSMOSIS",
          "coding": {
            "code": "C38633",
            "codeSystem": "nci:ExtCodeID"
          },
          "decode": "Electro-osmosis Route of Administration"
        },
        {
          "codedValue": "ENDOCERVICAL",
          "coding": {
            "code": "C38205",
            "codeSystem": "nci:ExtCodeID"
          },
          "decode": "Endocervical Route of Administration"
        },
        {
          "codedValue": "ENDOSINUSIAL",
          "coding": {
            "code": "C38206",
            "codeSystem": "nci:ExtCodeID"
          },
          "decode": "Endosinusial Route of Administration"
        },
        {
          "codedValue": "ENDOTRACHEAL",
          "coding": {
            "code": "C38208",
            "codeSystem": "nci:ExtCodeID"
          },
          "decode": "Endotracheal Route of Administration"
        },
        {
          "codedValue": "ENTERAL",
          "coding": {
            "code": "C38209",
            "codeSystem": "nci:ExtCodeID"
          },
          "decode": "Enteral Route of Administration"
        },
        {
          "codedValue": "AURICULAR (OTIC)",
          "coding": {
            "code": "C38192",
            "codeSystem": "nci:ExtCodeID"
          },
          "decode": "Auricular Route of Administration"
        },
        {
          "codedValue": "BUCCAL",
          "coding": {
            "code": "C38193",
            "codeSystem": "nci:ExtCodeID"
          },
          "decode": "Buccal Route of Administration"
        },
        {
          "codedValue": "CONJUNCTIVAL",
          "coding": {
            "code": "C38194",
            "codeSystem": "nci:ExtCodeID"
          },
          "decode": "Conjunctival Route of Administration"
        },
        {
          "codedValue": "CUTANEOUS",
          "coding": {
            "code": "C38675",
            "codeSystem": "nci:ExtCodeID"
          },
          "decode": "Cutaneous Route of Administration"
        },
        {
          "codedValue": "DENTAL",
          "coding": {
            "code": "C38197",
            "codeSystem": "nci:ExtCodeID"
          },
          "decode": "Dental Route of Administration"
        },
        {
          "codedValue": "DIETARY",
          "coding": {
            "code": "C78373",
            "codeSystem": "nci:ExtCodeID"
          },
          "decode": "Dietary Route of Administration"
        },
        {
          "codedValue": "ELECTRO-OSMOSIS",
          "coding": {
            "code": "C38633",
            "codeSystem": "nci:ExtCodeID"
          },
          "decode": "Electro-osmosis Route of Administration"
        },
        {
          "codedValue": "ENDOCERVICAL",
          "coding": {
            "code": "C38205",
            "codeSystem": "nci:ExtCodeID"
          },
          "decode": "Endocervical Route of Administration"
        },
        {
          "codedValue": "ENDOSINUSIAL",
          "coding": {
            "code": "C38206",
            "codeSystem": "nci:ExtCodeID"
          },
          "decode": "Endosinusial Route of Administration"
        },
        {
          "codedValue": "ENDOTRACHEAL",
          "coding": {
            "code": "C38208",
            "codeSystem": "nci:ExtCodeID"
          },
          "decode": "Endotracheal Route of Administration"
        },
        {
          "codedValue": "ENTERAL",
          "coding": {
            "code": "C38209",
            "codeSystem": "nci:ExtCodeID"
          },
          "decode": "Enteral Route of Administration"
        },
        {
          "codedValue": "AURICULAR (OTIC)",
          "coding": {
            "code": "C38192",
            "codeSystem": "nci:ExtCodeID"
          },
          "decode": "Auricular Route of Administration"
        },
        {
          "codedValue": "BUCCAL",
          "coding": {
            "code": "C38193",
            "codeSystem": "nci:ExtCodeID"
          },
          "decode": "Buccal Route of Administration"
        },
        {
          "codedValue": "CONJUNCTIVAL",
          "coding": {
            "code": "C38194",
            "codeSystem": "nci:ExtCodeID"
          },
          "decode": "Conjunctival Route of Administration"
        },
        {
          "codedValue": "CUTANEOUS",
          "coding": {
            "code": "C38675",
            "codeSystem": "nci:ExtCodeID"
          },
          "decode": "Cutaneous Route of Administration"
        },
        {
          "codedValue": "DENTAL",
          "coding": {
            "code": "C38197",
            "codeSystem": "nci:ExtCodeID"
          },
          "decode": "Dental Route of Administration"
        },
        {
          "codedValue": "DIETARY",
          "coding": {
            "code": "C78373",
            "codeSystem": "nci:ExtCodeID"
          },
          "decode": "Dietary Route of Administration"
        },
        {
          "codedValue": "ELECTRO-OSMOSIS",
          "coding": {
            "code": "C38633",
            "codeSystem": "nci:ExtCodeID"
          },
          "decode": "Electro-osmosis Route of Administration"
        },
        {
          "codedValue": "ENDOCERVICAL",
          "coding": {
            "code": "C38205",
            "codeSystem": "nci:ExtCodeID"
          },
          "decode": "Endocervical Route of Administration"
        },
        {
          "codedValue": "ENDOSINUSIAL",
          "coding": {
            "code": "C38206",
            "codeSystem": "nci:ExtCodeID"
          },
          "decode": "Endosinusial Route of Administration"
        },
        {
          "codedValue": "ENDOTRACHEAL",
          "coding": {
            "code": "C38208",
            "codeSystem": "nci:ExtCodeID"
          },
          "decode": "Endotracheal Route of Administration"
        },
        {
          "codedValue": "ENTERAL",
          "coding": {
            "code": "C38209",
            "codeSystem": "nci:ExtCodeID"
          },
          "decode": "Enteral Route of Administration"
        },
        {
          "codedValue": "AURICULAR (OTIC)",
          "coding": {
            "code": "C38192",
            "codeSystem": "nci:ExtCodeID"
          },
          "decode": "Auricular Route of Administration"
        },
        {
          "codedValue": "BUCCAL",
          "coding": {
            "code": "C38193",
            "codeSystem": "nci:ExtCodeID"
          },
          "decode": "Buccal Route of Administration"
        },
        {
          "codedValue": "CONJUNCTIVAL",
          "coding": {
            "code": "C38194",
            "codeSystem": "nci:ExtCodeID"
          },
          "decode": "Conjunctival Route of Administration"
        },
        {
          "codedValue": "CUTANEOUS",
          "coding": {
            "code": "C38675",
            "codeSystem": "nci:ExtCodeID"
          },
          "decode": "Cutaneous Route of Administration"
        },
        {
          "codedValue": "DENTAL",
          "coding": {
            "code": "C38197",
            "codeSystem": "nci:ExtCodeID"
          },
          "decode": "Dental Route of Administration"
        },
        {
          "codedValue": "DIETARY",
          "coding": {
            "code": "C78373",
            "codeSystem": "nci:ExtCodeID"
          },
          "decode": "Dietary Route of Administration"
        },
        {
          "codedValue": "ELECTRO-OSMOSIS",
          "coding": {
            "code": "C38633",
            "codeSystem": "nci:ExtCodeID"
          },
          "decode": "Electro-osmosis Route of Administration"
        },
        {
          "codedValue": "ENDOCERVICAL",
          "coding": {
            "code": "C38205",
            "codeSystem": "nci:ExtCodeID"
          },
          "decode": "Endocervical Route of Administration"
        },
        {
          "codedValue": "ENDOSINUSIAL",
          "coding": {
            "code": "C38206",
            "codeSystem": "nci:ExtCodeID"
          },
          "decode": "Endosinusial Route of Administration"
        },
        {
          "codedValue": "ENDOTRACHEAL",
          "coding": {
            "code": "C38208",
            "codeSystem": "nci:ExtCodeID"
          },
          "decode": "Endotracheal Route of Administration"
        },
        {
          "codedValue": "ENTERAL",
          "coding": {
            "code": "C38209",
            "codeSystem": "nci:ExtCodeID"
          },
          "decode": "Enteral Route of Administration"
        }
      ]
    },
    {
      "OID": "CL.C66731",
      "name": "Sex",
      "dataType": "text",
      "coding": [
        {
          "code": "C66731",
          "codeSystem": "nci:ExtCodeID"
        }
      ],
      "standard": "STD.2",
      "codeListItems": [
        {
          "codedValue": "F",
          "coding": {
            "code": "C16576",
            "codeSystem": "nci:ExtCodeID"
          },
          "decode": "Female"
        },
        {
          "codedValue": "INTERSEX",
          "coding": {
            "code": "C45908",
            "codeSystem": "nci:ExtCodeID"
          },
          "decode": "Intersex"
        },
        {
          "codedValue": "M",
          "coding": {
            "code": "C20197",
            "codeSystem": "nci:ExtCodeID"
          },
          "decode": "Male"
        },
        {
          "codedValue": "U",
          "coding": {
            "code": "C17998",
            "codeSystem": "nci:ExtCodeID"
          },
          "decode": "Unknown"
        },
        {
          "codedValue": "F",
          "coding": {
            "code": "C16576",
            "codeSystem": "nci:ExtCodeID"
          },
          "decode": "Female"
        },
        {
          "codedValue": "INTERSEX",
          "coding": {
            "code": "C45908",
            "codeSystem": "nci:ExtCodeID"
          },
          "decode": "Intersex"
        },
        {
          "codedValue": "M",
          "coding": {
            "code": "C20197",
            "codeSystem": "nci:ExtCodeID"
          },
          "decode": "Male"
        },
        {
          "codedValue": "U",
          "coding": {
            "code": "C17998",
            "codeSystem": "nci:ExtCodeID"
          },
          "decode": "Unknown"
        },
        {
          "codedValue": "F",
          "coding": {
            "code": "C16576",
            "codeSystem": "nci:ExtCodeID"
          },
          "decode": "Female"
        },
        {
          "codedValue": "INTERSEX",
          "coding": {
            "code": "C45908",
            "codeSystem": "nci:ExtCodeID"
          },
          "decode": "Intersex"
        },
        {
          "codedValue": "M",
          "coding": {
            "code": "C20197",
            "codeSystem": "nci:ExtCodeID"
          },
          "decode": "Male"
        },
        {
          "codedValue": "U",
          "coding": {
            "code": "C17998",
            "codeSystem": "nci:ExtCodeID"
          },
          "decode": "Unknown"
        },
        {
          "codedValue": "F",
          "coding": {
            "code": "C16576",
            "codeSystem": "nci:ExtCodeID"
          },
          "decode": "Female"
        },
        {
          "codedValue": "INTERSEX",
          "coding": {
            "code": "C45908",
            "codeSystem": "nci:ExtCodeID"
          },
          "decode": "Intersex"
        },
        {
          "codedValue": "M",
          "coding": {
            "code": "C20197",
            "codeSystem": "nci:ExtCodeID"
          },
          "decode": "Male"
        },
        {
          "codedValue": "U",
          "coding": {
            "code": "C17998",
            "codeSystem": "nci:ExtCodeID"
          },
          "decode": "Unknown"
        },
        {
          "codedValue": "F",
          "coding": {
            "code": "C16576",
            "codeSystem": "nci:ExtCodeID"
          },
          "decode": "Female"
        },
        {
          "codedValue": "INTERSEX",
          "coding": {
            "code": "C45908",
            "codeSystem": "nci:ExtCodeID"
          },
          "decode": "Intersex"
        },
        {
          "codedValue": "M",
          "coding": {
            "code": "C20197",
            "codeSystem": "nci:ExtCodeID"
          },
          "decode": "Male"
        },
        {
          "codedValue": "U",
          "coding": {
            "code": "C17998",
            "codeSystem": "nci:ExtCodeID"
          },
          "decode": "Unknown"
        },
        {
          "codedValue": "F",
          "coding": {
            "code": "C16576",
            "codeSystem": "nci:ExtCodeID"
          },
          "decode": "Female"
        },
        {
          "codedValue": "INTERSEX",
          "coding": {
            "code": "C45908",
            "codeSystem": "nci:ExtCodeID"
          },
          "decode": "Intersex"
        },
        {
          "codedValue": "M",
          "coding": {
            "code": "C20197",
            "codeSystem": "nci:ExtCodeID"
          },
          "decode": "Male"
        },
        {
          "codedValue": "U",
          "coding": {
            "code": "C17998",
            "codeSystem": "nci:ExtCodeID"
          },
          "decode": "Unknown"
        },
        {
          "codedValue": "F",
          "coding": {
            "code": "C16576",
            "codeSystem": "nci:ExtCodeID"
          },
          "decode": "Female"
        },
        {
          "codedValue": "INTERSEX",
          "coding": {
            "code": "C45908",
            "codeSystem": "nci:ExtCodeID"
          },
          "decode": "Intersex"
        },
        {
          "codedValue": "M",
          "coding": {
            "code": "C20197",
            "codeSystem": "nci:ExtCodeID"
          },
          "decode": "Male"
        },
        {
          "codedValue": "U",
          "coding": {
            "code": "C17998",
            "codeSystem": "nci:ExtCodeID"
          },
          "decode": "Unknown"
        }
      ]
    },
    {
      "OID": "CL.C66741",
      "name": "Vital Signs Test Code",
      "dataType": "text",
      "coding": [
        {
          "code": "C66741",
          "codeSystem": "nci:ExtCodeID"
        }
      ],
      "standard": "STD.2",
      "codeListItems": [
        {
          "codedValue": "ABI",
          "coding": {
            "code": "C87304",
            "codeSystem": "nci:ExtCodeID"
          },
          "decode": "Ankle-Brachial Index"
        },
        {
          "codedValue": "ABSKNF",
          "coding": {
            "code": "C103346",
            "codeSystem": "nci:ExtCodeID"
          },
          "decode": "Abdominal Skinfold Thickness"
        },
        {
          "codedValue": "ARMSPAN",
          "coding": {
            "code": "C181553",
            "codeSystem": "nci:ExtCodeID"
          },
          "decode": "Arm Span"
        },
        {
          "codedValue": "BCM",
          "coding": {
            "code": "C199996",
            "codeSystem": "nci:ExtCodeID"
          },
          "decode": "Body Cell Mass"
        },
        {
          "codedValue": "BLAPCTL",
          "coding": {
            "code": "C205752",
            "codeSystem": "nci:ExtCodeID"
          },
          "decode": "Body Length-for-Age Percentile"
        },
        {
          "codedValue": "BMI",
          "coding": {
            "code": "C16358",
            "codeSystem": "nci:ExtCodeID"
          },
          "decode": "Body Mass Index"
        },
        {
          "codedValue": "BMIAPCTL",
          "coding": {
            "code": "C163567",
            "codeSystem": "nci:ExtCodeID"
          },
          "decode": "BMI-for-Age Percentile"
        },
        {
          "codedValue": "BMR",
          "coding": {
            "code": "C126083",
            "codeSystem": "nci:ExtCodeID"
          },
          "decode": "Basal Metabolic Rate"
        },
        {
          "codedValue": "BODLNGTH",
          "coding": {
            "code": "C81298",
            "codeSystem": "nci:ExtCodeID"
          },
          "decode": "Total Body Length"
        },
        {
          "codedValue": "BODYFATM",
          "coding": {
            "code": "C122232",
            "codeSystem": "nci:ExtCodeID"
          },
          "decode": "Body Fat Measurement"
        },
        {
          "codedValue": "BRTHWT",
          "coding": {
            "code": "C76325",
            "codeSystem": "nci:ExtCodeID"
          },
          "decode": "Birth Weight"
        },
        {
          "codedValue": "ABI",
          "coding": {
            "code": "C87304",
            "codeSystem": "nci:ExtCodeID"
          },
          "decode": "Ankle-Brachial Index"
        },
        {
          "codedValue": "ABSKNF",
          "coding": {
            "code": "C103346",
            "codeSystem": "nci:ExtCodeID"
          },
          "decode": "Abdominal Skinfold Thickness"
        },
        {
          "codedValue": "ARMSPAN",
          "coding": {
            "code": "C181553",
            "codeSystem": "nci:ExtCodeID"
          },
          "decode": "Arm Span"
        },
        {
          "codedValue": "BCM",
          "coding": {
            "code": "C199996",
            "codeSystem": "nci:ExtCodeID"
          },
          "decode": "Body Cell Mass"
        },
        {
          "codedValue": "BLAPCTL",
          "coding": {
            "code": "C205752",
            "codeSystem": "nci:ExtCodeID"
          },
          "decode": "Body Length-for-Age Percentile"
        },
        {
          "codedValue": "BMI",
          "coding": {
            "code": "C16358",
            "codeSystem": "nci:ExtCodeID"
          },
          "decode": "Body Mass Index"
        },
        {
          "codedValue": "BMIAPCTL",
          "coding": {
            "code": "C163567",
            "codeSystem": "nci:ExtCodeID"
          },
          "decode": "BMI-for-Age Percentile"
        },
        {
          "codedValue": "BMR",
          "coding": {
            "code": "C126083",
            "codeSystem": "nci:ExtCodeID"
          },
          "decode": "Basal Metabolic Rate"
        },
        {
          "codedValue": "BODLNGTH",
          "coding": {
            "code": "C81298",
            "codeSystem": "nci:ExtCodeID"
          },
          "decode": "Total Body Length"
        },
        {
          "codedValue": "BODYFATM",
          "coding": {
            "code": "C122232",
            "codeSystem": "nci:ExtCodeID"
          },
          "decode": "Body Fat Measurement"
        },
        {
          "codedValue": "BRTHWT",
          "coding": {
            "code": "C76325",
            "codeSystem": "nci:ExtCodeID"
          },
          "decode": "Birth Weight"
        },
        {
          "codedValue": "ABI",
          "coding": {
            "code": "C87304",
            "codeSystem": "nci:ExtCodeID"
          },
          "decode": "Ankle-Brachial Index"
        },
        {
          "codedValue": "ABSKNF",
          "coding": {
            "code": "C103346",
            "codeSystem": "nci:ExtCodeID"
          },
          "decode": "Abdominal Skinfold Thickness"
        },
        {
          "codedValue": "ARMSPAN",
          "coding": {
            "code": "C181553",
            "codeSystem": "nci:ExtCodeID"
          },
          "decode": "Arm Span"
        },
        {
          "codedValue": "BCM",
          "coding": {
            "code": "C199996",
            "codeSystem": "nci:ExtCodeID"
          },
          "decode": "Body Cell Mass"
        },
        {
          "codedValue": "BLAPCTL",
          "coding": {
            "code": "C205752",
            "codeSystem": "nci:ExtCodeID"
          },
          "decode": "Body Length-for-Age Percentile"
        },
        {
          "codedValue": "BMI",
          "coding": {
            "code": "C16358",
            "codeSystem": "nci:ExtCodeID"
          },
          "decode": "Body Mass Index"
        },
        {
          "codedValue": "BMIAPCTL",
          "coding": {
            "code": "C163567",
            "codeSystem": "nci:ExtCodeID"
          },
          "decode": "BMI-for-Age Percentile"
        },
        {
          "codedValue": "BMR",
          "coding": {
            "code": "C126083",
            "codeSystem": "nci:ExtCodeID"
          },
          "decode": "Basal Metabolic Rate"
        },
        {
          "codedValue": "BODLNGTH",
          "coding": {
            "code": "C81298",
            "codeSystem": "nci:ExtCodeID"
          },
          "decode": "Total Body Length"
        },
        {
          "codedValue": "BODYFATM",
          "coding": {
            "code": "C122232",
            "codeSystem": "nci:ExtCodeID"
          },
          "decode": "Body Fat Measurement"
        },
        {
          "codedValue": "BRTHWT",
          "coding": {
            "code": "C76325",
            "codeSystem": "nci:ExtCodeID"
          },
          "decode": "Birth Weight"
        }
      ]
    },
    {
      "OID": "CL.C66742",
      "name": "No Yes Response",
      "dataType": "text",
      "coding": [
        {
          "code": "C66742",
          "codeSystem": "nci:ExtCodeID"
        }
      ],
      "standard": "STD.2",
      "codeListItems": [
        {
          "codedValue": "N",
          "coding": {
            "code": "C49487",
            "codeSystem": "nci:ExtCodeID"
          },
          "decode": "No"
        },
        {
          "codedValue": "NA",
          "coding": {
            "code": "C48660",
            "codeSystem": "nci:ExtCodeID"
          },
          "decode": "Not Applicable"
        },
        {
          "codedValue": "U",
          "coding": {
            "code": "C17998",
            "codeSystem": "nci:ExtCodeID"
          },
          "decode": "Unknown"
        },
        {
          "codedValue": "Y",
          "coding": {
            "code": "C49488",
            "codeSystem": "nci:ExtCodeID"
          },
          "decode": "Yes"
        },
        {
          "codedValue": "N",
          "coding": {
            "code": "C49487",
            "codeSystem": "nci:ExtCodeID"
          },
          "decode": "No"
        },
        {
          "codedValue": "NA",
          "coding": {
            "code": "C48660",
            "codeSystem": "nci:ExtCodeID"
          },
          "decode": "Not Applicable"
        },
        {
          "codedValue": "U",
          "coding": {
            "code": "C17998",
            "codeSystem": "nci:ExtCodeID"
          },
          "decode": "Unknown"
        },
        {
          "codedValue": "Y",
          "coding": {
            "code": "C49488",
            "codeSystem": "nci:ExtCodeID"
          },
          "decode": "Yes"
        },
        {
          "codedValue": "N",
          "coding": {
            "code": "C49487",
            "codeSystem": "nci:ExtCodeID"
          },
          "decode": "No"
        },
        {
          "codedValue": "NA",
          "coding": {
            "code": "C48660",
            "codeSystem": "nci:ExtCodeID"
          },
          "decode": "Not Applicable"
        },
        {
          "codedValue": "U",
          "coding": {
            "code": "C17998",
            "codeSystem": "nci:ExtCodeID"
          },
          "decode": "Unknown"
        },
        {
          "codedValue": "Y",
          "coding": {
            "code": "C49488",
            "codeSystem": "nci:ExtCodeID"
          },
          "decode": "Yes"
        },
        {
          "codedValue": "N",
          "coding": {
            "code": "C49487",
            "codeSystem": "nci:ExtCodeID"
          },
          "decode": "No"
        },
        {
          "codedValue": "NA",
          "coding": {
            "code": "C48660",
            "codeSystem": "nci:ExtCodeID"
          },
          "decode": "Not Applicable"
        },
        {
          "codedValue": "U",
          "coding": {
            "code": "C17998",
            "codeSystem": "nci:ExtCodeID"
          },
          "decode": "Unknown"
        },
        {
          "codedValue": "Y",
          "coding": {
            "code": "C49488",
            "codeSystem": "nci:ExtCodeID"
          },
          "decode": "Yes"
        },
        {
          "codedValue": "N",
          "coding": {
            "code": "C49487",
            "codeSystem": "nci:ExtCodeID"
          },
          "decode": "No"
        },
        {
          "codedValue": "NA",
          "coding": {
            "code": "C48660",
            "codeSystem": "nci:ExtCodeID"
          },
          "decode": "Not Applicable"
        },
        {
          "codedValue": "U",
          "coding": {
            "code": "C17998",
            "codeSystem": "nci:ExtCodeID"
          },
          "decode": "Unknown"
        },
        {
          "codedValue": "Y",
          "coding": {
            "code": "C49488",
            "codeSystem": "nci:ExtCodeID"
          },
          "decode": "Yes"
        },
        {
          "codedValue": "N",
          "coding": {
            "code": "C49487",
            "codeSystem": "nci:ExtCodeID"
          },
          "decode": "No"
        },
        {
          "codedValue": "NA",
          "coding": {
            "code": "C48660",
            "codeSystem": "nci:ExtCodeID"
          },
          "decode": "Not Applicable"
        },
        {
          "codedValue": "U",
          "coding": {
            "code": "C17998",
            "codeSystem": "nci:ExtCodeID"
          },
          "decode": "Unknown"
        },
        {
          "codedValue": "Y",
          "coding": {
            "code": "C49488",
            "codeSystem": "nci:ExtCodeID"
          },
          "decode": "Yes"
        },
        {
          "codedValue": "N",
          "coding": {
            "code": "C49487",
            "codeSystem": "nci:ExtCodeID"
          },
          "decode": "No"
        },
        {
          "codedValue": "NA",
          "coding": {
            "code": "C48660",
            "codeSystem": "nci:ExtCodeID"
          },
          "decode": "Not Applicable"
        },
        {
          "codedValue": "U",
          "coding": {
            "code": "C17998",
            "codeSystem": "nci:ExtCodeID"
          },
          "decode": "Unknown"
        },
        {
          "codedValue": "Y",
          "coding": {
            "code": "C49488",
            "codeSystem": "nci:ExtCodeID"
          },
          "decode": "Yes"
        },
        {
          "codedValue": "N",
          "coding": {
            "code": "C49487",
            "codeSystem": "nci:ExtCodeID"
          },
          "decode": "No"
        },
        {
          "codedValue": "NA",
          "coding": {
            "code": "C48660",
            "codeSystem": "nci:ExtCodeID"
          },
          "decode": "Not Applicable"
        },
        {
          "codedValue": "U",
          "coding": {
            "code": "C17998",
            "codeSystem": "nci:ExtCodeID"
          },
          "decode": "Unknown"
        },
        {
          "codedValue": "Y",
          "coding": {
            "code": "C49488",
            "codeSystem": "nci:ExtCodeID"
          },
          "decode": "Yes"
        },
        {
          "codedValue": "N",
          "coding": {
            "code": "C49487",
            "codeSystem": "nci:ExtCodeID"
          },
          "decode": "No"
        },
        {
          "codedValue": "NA",
          "coding": {
            "code": "C48660",
            "codeSystem": "nci:ExtCodeID"
          },
          "decode": "Not Applicable"
        },
        {
          "codedValue": "U",
          "coding": {
            "code": "C17998",
            "codeSystem": "nci:ExtCodeID"
          },
          "decode": "Unknown"
        },
        {
          "codedValue": "Y",
          "coding": {
            "code": "C49488",
            "codeSystem": "nci:ExtCodeID"
          },
          "decode": "Yes"
        },
        {
          "codedValue": "N",
          "coding": {
            "code": "C49487",
            "codeSystem": "nci:ExtCodeID"
          },
          "decode": "No"
        },
        {
          "codedValue": "NA",
          "coding": {
            "code": "C48660",
            "codeSystem": "nci:ExtCodeID"
          },
          "decode": "Not Applicable"
        },
        {
          "codedValue": "U",
          "coding": {
            "code": "C17998",
            "codeSystem": "nci:ExtCodeID"
          },
          "decode": "Unknown"
        },
        {
          "codedValue": "Y",
          "coding": {
            "code": "C49488",
            "codeSystem": "nci:ExtCodeID"
          },
          "decode": "Yes"
        }
      ]
    },
    {
      "OID": "CL.C66767",
      "name": "Action Taken with Study Treatment",
      "dataType": "text",
      "coding": [
        {
          "code": "C66767",
          "codeSystem": "nci:ExtCodeID"
        }
      ],
      "standard": "STD.2",
      "codeListItems": [
        {
          "codedValue": "DOSE INCREASED",
          "coding": {
            "code": "C49503",
            "codeSystem": "nci:ExtCodeID"
          },
          "decode": "Dose Increased"
        },
        {
          "codedValue": "DOSE NOT CHANGED",
          "coding": {
            "code": "C49504",
            "codeSystem": "nci:ExtCodeID"
          },
          "decode": "Dose Not Changed"
        },
        {
          "codedValue": "DOSE RATE REDUCED",
          "coding": {
            "code": "C150826",
            "codeSystem": "nci:ExtCodeID"
          },
          "decode": "Dose Rate Reduced"
        },
        {
          "codedValue": "DOSE REDUCED",
          "coding": {
            "code": "C49505",
            "codeSystem": "nci:ExtCodeID"
          },
          "decode": "Dose Reduced"
        },
        {
          "codedValue": "DRUG INTERRUPTED",
          "coding": {
            "code": "C49501",
            "codeSystem": "nci:ExtCodeID"
          },
          "decode": "Drug Interrupted"
        },
        {
          "codedValue": "DRUG WITHDRAWN",
          "coding": {
            "code": "C49502",
            "codeSystem": "nci:ExtCodeID"
          },
          "decode": "Drug Withdrawn"
        },
        {
          "codedValue": "NOT APPLICABLE",
          "coding": {
            "code": "C48660",
            "codeSystem": "nci:ExtCodeID"
          },
          "decode": "Not Applicable"
        },
        {
          "codedValue": "UNKNOWN",
          "coding": {
            "code": "C17998",
            "codeSystem": "nci:ExtCodeID"
          },
          "decode": "Unknown"
        },
        {
          "codedValue": "DOSE INCREASED",
          "coding": {
            "code": "C49503",
            "codeSystem": "nci:ExtCodeID"
          },
          "decode": "Dose Increased"
        },
        {
          "codedValue": "DOSE NOT CHANGED",
          "coding": {
            "code": "C49504",
            "codeSystem": "nci:ExtCodeID"
          },
          "decode": "Dose Not Changed"
        },
        {
          "codedValue": "DOSE RATE REDUCED",
          "coding": {
            "code": "C150826",
            "codeSystem": "nci:ExtCodeID"
          },
          "decode": "Dose Rate Reduced"
        },
        {
          "codedValue": "DOSE REDUCED",
          "coding": {
            "code": "C49505",
            "codeSystem": "nci:ExtCodeID"
          },
          "decode": "Dose Reduced"
        },
        {
          "codedValue": "DRUG INTERRUPTED",
          "coding": {
            "code": "C49501",
            "codeSystem": "nci:ExtCodeID"
          },
          "decode": "Drug Interrupted"
        },
        {
          "codedValue": "DRUG WITHDRAWN",
          "coding": {
            "code": "C49502",
            "codeSystem": "nci:ExtCodeID"
          },
          "decode": "Drug Withdrawn"
        },
        {
          "codedValue": "NOT APPLICABLE",
          "coding": {
            "code": "C48660",
            "codeSystem": "nci:ExtCodeID"
          },
          "decode": "Not Applicable"
        },
        {
          "codedValue": "UNKNOWN",
          "coding": {
            "code": "C17998",
            "codeSystem": "nci:ExtCodeID"
          },
          "decode": "Unknown"
        },
        {
          "codedValue": "DOSE INCREASED",
          "coding": {
            "code": "C49503",
            "codeSystem": "nci:ExtCodeID"
          },
          "decode": "Dose Increased"
        },
        {
          "codedValue": "DOSE NOT CHANGED",
          "coding": {
            "code": "C49504",
            "codeSystem": "nci:ExtCodeID"
          },
          "decode": "Dose Not Changed"
        },
        {
          "codedValue": "DOSE RATE REDUCED",
          "coding": {
            "code": "C150826",
            "codeSystem": "nci:ExtCodeID"
          },
          "decode": "Dose Rate Reduced"
        },
        {
          "codedValue": "DOSE REDUCED",
          "coding": {
            "code": "C49505",
            "codeSystem": "nci:ExtCodeID"
          },
          "decode": "Dose Reduced"
        },
        {
          "codedValue": "DRUG INTERRUPTED",
          "coding": {
            "code": "C49501",
            "codeSystem": "nci:ExtCodeID"
          },
          "decode": "Drug Interrupted"
        },
        {
          "codedValue": "DRUG WITHDRAWN",
          "coding": {
            "code": "C49502",
            "codeSystem": "nci:ExtCodeID"
          },
          "decode": "Drug Withdrawn"
        },
        {
          "codedValue": "NOT APPLICABLE",
          "coding": {
            "code": "C48660",
            "codeSystem": "nci:ExtCodeID"
          },
          "decode": "Not Applicable"
        },
        {
          "codedValue": "UNKNOWN",
          "coding": {
            "code": "C17998",
            "codeSystem": "nci:ExtCodeID"
          },
          "decode": "Unknown"
        },
        {
          "codedValue": "DOSE INCREASED",
          "coding": {
            "code": "C49503",
            "codeSystem": "nci:ExtCodeID"
          },
          "decode": "Dose Increased"
        },
        {
          "codedValue": "DOSE NOT CHANGED",
          "coding": {
            "code": "C49504",
            "codeSystem": "nci:ExtCodeID"
          },
          "decode": "Dose Not Changed"
        },
        {
          "codedValue": "DOSE RATE REDUCED",
          "coding": {
            "code": "C150826",
            "codeSystem": "nci:ExtCodeID"
          },
          "decode": "Dose Rate Reduced"
        },
        {
          "codedValue": "DOSE REDUCED",
          "coding": {
            "code": "C49505",
            "codeSystem": "nci:ExtCodeID"
          },
          "decode": "Dose Reduced"
        },
        {
          "codedValue": "DRUG INTERRUPTED",
          "coding": {
            "code": "C49501",
            "codeSystem": "nci:ExtCodeID"
          },
          "decode": "Drug Interrupted"
        },
        {
          "codedValue": "DRUG WITHDRAWN",
          "coding": {
            "code": "C49502",
            "codeSystem": "nci:ExtCodeID"
          },
          "decode": "Drug Withdrawn"
        },
        {
          "codedValue": "NOT APPLICABLE",
          "coding": {
            "code": "C48660",
            "codeSystem": "nci:ExtCodeID"
          },
          "decode": "Not Applicable"
        },
        {
          "codedValue": "UNKNOWN",
          "coding": {
            "code": "C17998",
            "codeSystem": "nci:ExtCodeID"
          },
          "decode": "Unknown"
        },
        {
          "codedValue": "DOSE INCREASED",
          "coding": {
            "code": "C49503",
            "codeSystem": "nci:ExtCodeID"
          },
          "decode": "Dose Increased"
        },
        {
          "codedValue": "DOSE NOT CHANGED",
          "coding": {
            "code": "C49504",
            "codeSystem": "nci:ExtCodeID"
          },
          "decode": "Dose Not Changed"
        },
        {
          "codedValue": "DOSE RATE REDUCED",
          "coding": {
            "code": "C150826",
            "codeSystem": "nci:ExtCodeID"
          },
          "decode": "Dose Rate Reduced"
        },
        {
          "codedValue": "DOSE REDUCED",
          "coding": {
            "code": "C49505",
            "codeSystem": "nci:ExtCodeID"
          },
          "decode": "Dose Reduced"
        },
        {
          "codedValue": "DRUG INTERRUPTED",
          "coding": {
            "code": "C49501",
            "codeSystem": "nci:ExtCodeID"
          },
          "decode": "Drug Interrupted"
        },
        {
          "codedValue": "DRUG WITHDRAWN",
          "coding": {
            "code": "C49502",
            "codeSystem": "nci:ExtCodeID"
          },
          "decode": "Drug Withdrawn"
        },
        {
          "codedValue": "NOT APPLICABLE",
          "coding": {
            "code": "C48660",
            "codeSystem": "nci:ExtCodeID"
          },
          "decode": "Not Applicable"
        },
        {
          "codedValue": "UNKNOWN",
          "coding": {
            "code": "C17998",
            "codeSystem": "nci:ExtCodeID"
          },
          "decode": "Unknown"
        },
        {
          "codedValue": "DOSE INCREASED",
          "coding": {
            "code": "C49503",
            "codeSystem": "nci:ExtCodeID"
          },
          "decode": "Dose Increased"
        },
        {
          "codedValue": "DOSE NOT CHANGED",
          "coding": {
            "code": "C49504",
            "codeSystem": "nci:ExtCodeID"
          },
          "decode": "Dose Not Changed"
        },
        {
          "codedValue": "DOSE RATE REDUCED",
          "coding": {
            "code": "C150826",
            "codeSystem": "nci:ExtCodeID"
          },
          "decode": "Dose Rate Reduced"
        },
        {
          "codedValue": "DOSE REDUCED",
          "coding": {
            "code": "C49505",
            "codeSystem": "nci:ExtCodeID"
          },
          "decode": "Dose Reduced"
        },
        {
          "codedValue": "DRUG INTERRUPTED",
          "coding": {
            "code": "C49501",
            "codeSystem": "nci:ExtCodeID"
          },
          "decode": "Drug Interrupted"
        },
        {
          "codedValue": "DRUG WITHDRAWN",
          "coding": {
            "code": "C49502",
            "codeSystem": "nci:ExtCodeID"
          },
          "decode": "Drug Withdrawn"
        },
        {
          "codedValue": "NOT APPLICABLE",
          "coding": {
            "code": "C48660",
            "codeSystem": "nci:ExtCodeID"
          },
          "decode": "Not Applicable"
        },
        {
          "codedValue": "UNKNOWN",
          "coding": {
            "code": "C17998",
            "codeSystem": "nci:ExtCodeID"
          },
          "decode": "Unknown"
        },
        {
          "codedValue": "DOSE INCREASED",
          "coding": {
            "code": "C49503",
            "codeSystem": "nci:ExtCodeID"
          },
          "decode": "Dose Increased"
        },
        {
          "codedValue": "DOSE NOT CHANGED",
          "coding": {
            "code": "C49504",
            "codeSystem": "nci:ExtCodeID"
          },
          "decode": "Dose Not Changed"
        },
        {
          "codedValue": "DOSE RATE REDUCED",
          "coding": {
            "code": "C150826",
            "codeSystem": "nci:ExtCodeID"
          },
          "decode": "Dose Rate Reduced"
        },
        {
          "codedValue": "DOSE REDUCED",
          "coding": {
            "code": "C49505",
            "codeSystem": "nci:ExtCodeID"
          },
          "decode": "Dose Reduced"
        },
        {
          "codedValue": "DRUG INTERRUPTED",
          "coding": {
            "code": "C49501",
            "codeSystem": "nci:ExtCodeID"
          },
          "decode": "Drug Interrupted"
        },
        {
          "codedValue": "DRUG WITHDRAWN",
          "coding": {
            "code": "C49502",
            "codeSystem": "nci:ExtCodeID"
          },
          "decode": "Drug Withdrawn"
        },
        {
          "codedValue": "NOT APPLICABLE",
          "coding": {
            "code": "C48660",
            "codeSystem": "nci:ExtCodeID"
          },
          "decode": "Not Applicable"
        },
        {
          "codedValue": "UNKNOWN",
          "coding": {
            "code": "C17998",
            "codeSystem": "nci:ExtCodeID"
          },
          "decode": "Unknown"
        },
        {
          "codedValue": "DOSE INCREASED",
          "coding": {
            "code": "C49503",
            "codeSystem": "nci:ExtCodeID"
          },
          "decode": "Dose Increased"
        },
        {
          "codedValue": "DOSE NOT CHANGED",
          "coding": {
            "code": "C49504",
            "codeSystem": "nci:ExtCodeID"
          },
          "decode": "Dose Not Changed"
        },
        {
          "codedValue": "DOSE RATE REDUCED",
          "coding": {
            "code": "C150826",
            "codeSystem": "nci:ExtCodeID"
          },
          "decode": "Dose Rate Reduced"
        },
        {
          "codedValue": "DOSE REDUCED",
          "coding": {
            "code": "C49505",
            "codeSystem": "nci:ExtCodeID"
          },
          "decode": "Dose Reduced"
        },
        {
          "codedValue": "DRUG INTERRUPTED",
          "coding": {
            "code": "C49501",
            "codeSystem": "nci:ExtCodeID"
          },
          "decode": "Drug Interrupted"
        },
        {
          "codedValue": "DRUG WITHDRAWN",
          "coding": {
            "code": "C49502",
            "codeSystem": "nci:ExtCodeID"
          },
          "decode": "Drug Withdrawn"
        },
        {
          "codedValue": "NOT APPLICABLE",
          "coding": {
            "code": "C48660",
            "codeSystem": "nci:ExtCodeID"
          },
          "decode": "Not Applicable"
        },
        {
          "codedValue": "UNKNOWN",
          "coding": {
            "code": "C17998",
            "codeSystem": "nci:ExtCodeID"
          },
          "decode": "Unknown"
        },
        {
          "codedValue": "DOSE INCREASED",
          "coding": {
            "code": "C49503",
            "codeSystem": "nci:ExtCodeID"
          },
          "decode": "Dose Increased"
        },
        {
          "codedValue": "DOSE NOT CHANGED",
          "coding": {
            "code": "C49504",
            "codeSystem": "nci:ExtCodeID"
          },
          "decode": "Dose Not Changed"
        },
        {
          "codedValue": "DOSE RATE REDUCED",
          "coding": {
            "code": "C150826",
            "codeSystem": "nci:ExtCodeID"
          },
          "decode": "Dose Rate Reduced"
        },
        {
          "codedValue": "DOSE REDUCED",
          "coding": {
            "code": "C49505",
            "codeSystem": "nci:ExtCodeID"
          },
          "decode": "Dose Reduced"
        },
        {
          "codedValue": "DRUG INTERRUPTED",
          "coding": {
            "code": "C49501",
            "codeSystem": "nci:ExtCodeID"
          },
          "decode": "Drug Interrupted"
        },
        {
          "codedValue": "DRUG WITHDRAWN",
          "coding": {
            "code": "C49502",
            "codeSystem": "nci:ExtCodeID"
          },
          "decode": "Drug Withdrawn"
        },
        {
          "codedValue": "NOT APPLICABLE",
          "coding": {
            "code": "C48660",
            "codeSystem": "nci:ExtCodeID"
          },
          "decode": "Not Applicable"
        },
        {
          "codedValue": "UNKNOWN",
          "coding": {
            "code": "C17998",
            "codeSystem": "nci:ExtCodeID"
          },
          "decode": "Unknown"
        }
      ]
    },
    {
      "OID": "CL.C66768",
      "name": "Outcome of Event",
      "dataType": "text",
      "coding": [
        {
          "code": "C66768",
          "codeSystem": "nci:ExtCodeID"
        }
      ],
      "standard": "STD.2",
      "codeListItems": [
        {
          "codedValue": "FATAL",
          "coding": {
            "code": "C48275",
            "codeSystem": "nci:ExtCodeID"
          },
          "decode": "Death Related to Adverse Event"
        },
        {
          "codedValue": "NOT RECOVERED/NOT RESOLVED",
          "coding": {
            "code": "C49494",
            "codeSystem": "nci:ExtCodeID"
          },
          "decode": "Not Recovered from Adverse Event"
        },
        {
          "codedValue": "RECOVERED/RESOLVED WITH SEQUELAE",
          "coding": {
            "code": "C49495",
            "codeSystem": "nci:ExtCodeID"
          },
          "decode": "Recovered from Adverse Event with Sequelae"
        },
        {
          "codedValue": "RECOVERED/RESOLVED",
          "coding": {
            "code": "C49498",
            "codeSystem": "nci:ExtCodeID"
          },
          "decode": "Recovered from Adverse Event"
        },
        {
          "codedValue": "RECOVERING/RESOLVING",
          "coding": {
            "code": "C49496",
            "codeSystem": "nci:ExtCodeID"
          },
          "decode": "Recovering or Resolving"
        },
        {
          "codedValue": "UNKNOWN",
          "coding": {
            "code": "C17998",
            "codeSystem": "nci:ExtCodeID"
          },
          "decode": "Unknown"
        },
        {
          "codedValue": "FATAL",
          "coding": {
            "code": "C48275",
            "codeSystem": "nci:ExtCodeID"
          },
          "decode": "Death Related to Adverse Event"
        },
        {
          "codedValue": "NOT RECOVERED/NOT RESOLVED",
          "coding": {
            "code": "C49494",
            "codeSystem": "nci:ExtCodeID"
          },
          "decode": "Not Recovered from Adverse Event"
        },
        {
          "codedValue": "RECOVERED/RESOLVED WITH SEQUELAE",
          "coding": {
            "code": "C49495",
            "codeSystem": "nci:ExtCodeID"
          },
          "decode": "Recovered from Adverse Event with Sequelae"
        },
        {
          "codedValue": "RECOVERED/RESOLVED",
          "coding": {
            "code": "C49498",
            "codeSystem": "nci:ExtCodeID"
          },
          "decode": "Recovered from Adverse Event"
        },
        {
          "codedValue": "RECOVERING/RESOLVING",
          "coding": {
            "code": "C49496",
            "codeSystem": "nci:ExtCodeID"
          },
          "decode": "Recovering or Resolving"
        },
        {
          "codedValue": "UNKNOWN",
          "coding": {
            "code": "C17998",
            "codeSystem": "nci:ExtCodeID"
          },
          "decode": "Unknown"
        },
        {
          "codedValue": "FATAL",
          "coding": {
            "code": "C48275",
            "codeSystem": "nci:ExtCodeID"
          },
          "decode": "Death Related to Adverse Event"
        },
        {
          "codedValue": "NOT RECOVERED/NOT RESOLVED",
          "coding": {
            "code": "C49494",
            "codeSystem": "nci:ExtCodeID"
          },
          "decode": "Not Recovered from Adverse Event"
        },
        {
          "codedValue": "RECOVERED/RESOLVED WITH SEQUELAE",
          "coding": {
            "code": "C49495",
            "codeSystem": "nci:ExtCodeID"
          },
          "decode": "Recovered from Adverse Event with Sequelae"
        },
        {
          "codedValue": "RECOVERED/RESOLVED",
          "coding": {
            "code": "C49498",
            "codeSystem": "nci:ExtCodeID"
          },
          "decode": "Recovered from Adverse Event"
        },
        {
          "codedValue": "RECOVERING/RESOLVING",
          "coding": {
            "code": "C49496",
            "codeSystem": "nci:ExtCodeID"
          },
          "decode": "Recovering or Resolving"
        },
        {
          "codedValue": "UNKNOWN",
          "coding": {
            "code": "C17998",
            "codeSystem": "nci:ExtCodeID"
          },
          "decode": "Unknown"
        },
        {
          "codedValue": "FATAL",
          "coding": {
            "code": "C48275",
            "codeSystem": "nci:ExtCodeID"
          },
          "decode": "Death Related to Adverse Event"
        },
        {
          "codedValue": "NOT RECOVERED/NOT RESOLVED",
          "coding": {
            "code": "C49494",
            "codeSystem": "nci:ExtCodeID"
          },
          "decode": "Not Recovered from Adverse Event"
        },
        {
          "codedValue": "RECOVERED/RESOLVED WITH SEQUELAE",
          "coding": {
            "code": "C49495",
            "codeSystem": "nci:ExtCodeID"
          },
          "decode": "Recovered from Adverse Event with Sequelae"
        },
        {
          "codedValue": "RECOVERED/RESOLVED",
          "coding": {
            "code": "C49498",
            "codeSystem": "nci:ExtCodeID"
          },
          "decode": "Recovered from Adverse Event"
        },
        {
          "codedValue": "RECOVERING/RESOLVING",
          "coding": {
            "code": "C49496",
            "codeSystem": "nci:ExtCodeID"
          },
          "decode": "Recovering or Resolving"
        },
        {
          "codedValue": "UNKNOWN",
          "coding": {
            "code": "C17998",
            "codeSystem": "nci:ExtCodeID"
          },
          "decode": "Unknown"
        },
        {
          "codedValue": "FATAL",
          "coding": {
            "code": "C48275",
            "codeSystem": "nci:ExtCodeID"
          },
          "decode": "Death Related to Adverse Event"
        },
        {
          "codedValue": "NOT RECOVERED/NOT RESOLVED",
          "coding": {
            "code": "C49494",
            "codeSystem": "nci:ExtCodeID"
          },
          "decode": "Not Recovered from Adverse Event"
        },
        {
          "codedValue": "RECOVERED/RESOLVED WITH SEQUELAE",
          "coding": {
            "code": "C49495",
            "codeSystem": "nci:ExtCodeID"
          },
          "decode": "Recovered from Adverse Event with Sequelae"
        },
        {
          "codedValue": "RECOVERED/RESOLVED",
          "coding": {
            "code": "C49498",
            "codeSystem": "nci:ExtCodeID"
          },
          "decode": "Recovered from Adverse Event"
        },
        {
          "codedValue": "RECOVERING/RESOLVING",
          "coding": {
            "code": "C49496",
            "codeSystem": "nci:ExtCodeID"
          },
          "decode": "Recovering or Resolving"
        },
        {
          "codedValue": "UNKNOWN",
          "coding": {
            "code": "C17998",
            "codeSystem": "nci:ExtCodeID"
          },
          "decode": "Unknown"
        },
        {
          "codedValue": "FATAL",
          "coding": {
            "code": "C48275",
            "codeSystem": "nci:ExtCodeID"
          },
          "decode": "Death Related to Adverse Event"
        },
        {
          "codedValue": "NOT RECOVERED/NOT RESOLVED",
          "coding": {
            "code": "C49494",
            "codeSystem": "nci:ExtCodeID"
          },
          "decode": "Not Recovered from Adverse Event"
        },
        {
          "codedValue": "RECOVERED/RESOLVED WITH SEQUELAE",
          "coding": {
            "code": "C49495",
            "codeSystem": "nci:ExtCodeID"
          },
          "decode": "Recovered from Adverse Event with Sequelae"
        },
        {
          "codedValue": "RECOVERED/RESOLVED",
          "coding": {
            "code": "C49498",
            "codeSystem": "nci:ExtCodeID"
          },
          "decode": "Recovered from Adverse Event"
        },
        {
          "codedValue": "RECOVERING/RESOLVING",
          "coding": {
            "code": "C49496",
            "codeSystem": "nci:ExtCodeID"
          },
          "decode": "Recovering or Resolving"
        },
        {
          "codedValue": "UNKNOWN",
          "coding": {
            "code": "C17998",
            "codeSystem": "nci:ExtCodeID"
          },
          "decode": "Unknown"
        },
        {
          "codedValue": "FATAL",
          "coding": {
            "code": "C48275",
            "codeSystem": "nci:ExtCodeID"
          },
          "decode": "Death Related to Adverse Event"
        },
        {
          "codedValue": "NOT RECOVERED/NOT RESOLVED",
          "coding": {
            "code": "C49494",
            "codeSystem": "nci:ExtCodeID"
          },
          "decode": "Not Recovered from Adverse Event"
        },
        {
          "codedValue": "RECOVERED/RESOLVED WITH SEQUELAE",
          "coding": {
            "code": "C49495",
            "codeSystem": "nci:ExtCodeID"
          },
          "decode": "Recovered from Adverse Event with Sequelae"
        },
        {
          "codedValue": "RECOVERED/RESOLVED",
          "coding": {
            "code": "C49498",
            "codeSystem": "nci:ExtCodeID"
          },
          "decode": "Recovered from Adverse Event"
        },
        {
          "codedValue": "RECOVERING/RESOLVING",
          "coding": {
            "code": "C49496",
            "codeSystem": "nci:ExtCodeID"
          },
          "decode": "Recovering or Resolving"
        },
        {
          "codedValue": "UNKNOWN",
          "coding": {
            "code": "C17998",
            "codeSystem": "nci:ExtCodeID"
          },
          "decode": "Unknown"
        },
        {
          "codedValue": "FATAL",
          "coding": {
            "code": "C48275",
            "codeSystem": "nci:ExtCodeID"
          },
          "decode": "Death Related to Adverse Event"
        },
        {
          "codedValue": "NOT RECOVERED/NOT RESOLVED",
          "coding": {
            "code": "C49494",
            "codeSystem": "nci:ExtCodeID"
          },
          "decode": "Not Recovered from Adverse Event"
        },
        {
          "codedValue": "RECOVERED/RESOLVED WITH SEQUELAE",
          "coding": {
            "code": "C49495",
            "codeSystem": "nci:ExtCodeID"
          },
          "decode": "Recovered from Adverse Event with Sequelae"
        },
        {
          "codedValue": "RECOVERED/RESOLVED",
          "coding": {
            "code": "C49498",
            "codeSystem": "nci:ExtCodeID"
          },
          "decode": "Recovered from Adverse Event"
        },
        {
          "codedValue": "RECOVERING/RESOLVING",
          "coding": {
            "code": "C49496",
            "codeSystem": "nci:ExtCodeID"
          },
          "decode": "Recovering or Resolving"
        },
        {
          "codedValue": "UNKNOWN",
          "coding": {
            "code": "C17998",
            "codeSystem": "nci:ExtCodeID"
          },
          "decode": "Unknown"
        },
        {
          "codedValue": "FATAL",
          "coding": {
            "code": "C48275",
            "codeSystem": "nci:ExtCodeID"
          },
          "decode": "Death Related to Adverse Event"
        },
        {
          "codedValue": "NOT RECOVERED/NOT RESOLVED",
          "coding": {
            "code": "C49494",
            "codeSystem": "nci:ExtCodeID"
          },
          "decode": "Not Recovered from Adverse Event"
        },
        {
          "codedValue": "RECOVERED/RESOLVED WITH SEQUELAE",
          "coding": {
            "code": "C49495",
            "codeSystem": "nci:ExtCodeID"
          },
          "decode": "Recovered from Adverse Event with Sequelae"
        },
        {
          "codedValue": "RECOVERED/RESOLVED",
          "coding": {
            "code": "C49498",
            "codeSystem": "nci:ExtCodeID"
          },
          "decode": "Recovered from Adverse Event"
        },
        {
          "codedValue": "RECOVERING/RESOLVING",
          "coding": {
            "code": "C49496",
            "codeSystem": "nci:ExtCodeID"
          },
          "decode": "Recovering or Resolving"
        },
        {
          "codedValue": "UNKNOWN",
          "coding": {
            "code": "C17998",
            "codeSystem": "nci:ExtCodeID"
          },
          "decode": "Unknown"
        }
      ]
    },
    {
      "OID": "CL.C66769",
      "name": "Severity/Intensity Scale for Adverse Events",
      "dataType": "text",
      "coding": [
        {
          "code": "C66769",
          "codeSystem": "nci:ExtCodeID"
        }
      ],
      "standard": "STD.2",
      "codeListItems": [
        {
          "codedValue": "MILD",
          "coding": {
            "code": "C41338",
            "codeSystem": "nci:ExtCodeID"
          },
          "decode": "Mild Adverse Event"
        },
        {
          "codedValue": "MODERATE",
          "coding": {
            "code": "C41339",
            "codeSystem": "nci:ExtCodeID"
          },
          "decode": "Moderate Adverse Event"
        },
        {
          "codedValue": "SEVERE",
          "coding": {
            "code": "C41340",
            "codeSystem": "nci:ExtCodeID"
          },
          "decode": "Severe Adverse Event"
        },
        {
          "codedValue": "MILD",
          "coding": {
            "code": "C41338",
            "codeSystem": "nci:ExtCodeID"
          },
          "decode": "Mild Adverse Event"
        },
        {
          "codedValue": "MODERATE",
          "coding": {
            "code": "C41339",
            "codeSystem": "nci:ExtCodeID"
          },
          "decode": "Moderate Adverse Event"
        },
        {
          "codedValue": "SEVERE",
          "coding": {
            "code": "C41340",
            "codeSystem": "nci:ExtCodeID"
          },
          "decode": "Severe Adverse Event"
        },
        {
          "codedValue": "MILD",
          "coding": {
            "code": "C41338",
            "codeSystem": "nci:ExtCodeID"
          },
          "decode": "Mild Adverse Event"
        },
        {
          "codedValue": "MODERATE",
          "coding": {
            "code": "C41339",
            "codeSystem": "nci:ExtCodeID"
          },
          "decode": "Moderate Adverse Event"
        },
        {
          "codedValue": "SEVERE",
          "coding": {
            "code": "C41340",
            "codeSystem": "nci:ExtCodeID"
          },
          "decode": "Severe Adverse Event"
        },
        {
          "codedValue": "MILD",
          "coding": {
            "code": "C41338",
            "codeSystem": "nci:ExtCodeID"
          },
          "decode": "Mild Adverse Event"
        },
        {
          "codedValue": "MODERATE",
          "coding": {
            "code": "C41339",
            "codeSystem": "nci:ExtCodeID"
          },
          "decode": "Moderate Adverse Event"
        },
        {
          "codedValue": "SEVERE",
          "coding": {
            "code": "C41340",
            "codeSystem": "nci:ExtCodeID"
          },
          "decode": "Severe Adverse Event"
        },
        {
          "codedValue": "MILD",
          "coding": {
            "code": "C41338",
            "codeSystem": "nci:ExtCodeID"
          },
          "decode": "Mild Adverse Event"
        },
        {
          "codedValue": "MODERATE",
          "coding": {
            "code": "C41339",
            "codeSystem": "nci:ExtCodeID"
          },
          "decode": "Moderate Adverse Event"
        },
        {
          "codedValue": "SEVERE",
          "coding": {
            "code": "C41340",
            "codeSystem": "nci:ExtCodeID"
          },
          "decode": "Severe Adverse Event"
        },
        {
          "codedValue": "MILD",
          "coding": {
            "code": "C41338",
            "codeSystem": "nci:ExtCodeID"
          },
          "decode": "Mild Adverse Event"
        },
        {
          "codedValue": "MODERATE",
          "coding": {
            "code": "C41339",
            "codeSystem": "nci:ExtCodeID"
          },
          "decode": "Moderate Adverse Event"
        },
        {
          "codedValue": "SEVERE",
          "coding": {
            "code": "C41340",
            "codeSystem": "nci:ExtCodeID"
          },
          "decode": "Severe Adverse Event"
        },
        {
          "codedValue": "MILD",
          "coding": {
            "code": "C41338",
            "codeSystem": "nci:ExtCodeID"
          },
          "decode": "Mild Adverse Event"
        },
        {
          "codedValue": "MODERATE",
          "coding": {
            "code": "C41339",
            "codeSystem": "nci:ExtCodeID"
          },
          "decode": "Moderate Adverse Event"
        },
        {
          "codedValue": "SEVERE",
          "coding": {
            "code": "C41340",
            "codeSystem": "nci:ExtCodeID"
          },
          "decode": "Severe Adverse Event"
        },
        {
          "codedValue": "MILD",
          "coding": {
            "code": "C41338",
            "codeSystem": "nci:ExtCodeID"
          },
          "decode": "Mild Adverse Event"
        },
        {
          "codedValue": "MODERATE",
          "coding": {
            "code": "C41339",
            "codeSystem": "nci:ExtCodeID"
          },
          "decode": "Moderate Adverse Event"
        },
        {
          "codedValue": "SEVERE",
          "coding": {
            "code": "C41340",
            "codeSystem": "nci:ExtCodeID"
          },
          "decode": "Severe Adverse Event"
        },
        {
          "codedValue": "MILD",
          "coding": {
            "code": "C41338",
            "codeSystem": "nci:ExtCodeID"
          },
          "decode": "Mild Adverse Event"
        },
        {
          "codedValue": "MODERATE",
          "coding": {
            "code": "C41339",
            "codeSystem": "nci:ExtCodeID"
          },
          "decode": "Moderate Adverse Event"
        },
        {
          "codedValue": "SEVERE",
          "coding": {
            "code": "C41340",
            "codeSystem": "nci:ExtCodeID"
          },
          "decode": "Severe Adverse Event"
        }
      ]
    },
    {
      "OID": "CL.C66770",
      "name": "Units for Vital Signs Results",
      "dataType": "text",
      "coding": [
        {
          "code": "C66770",
          "codeSystem": "nci:ExtCodeID"
        }
      ],
      "standard": "STD.2",
      "codeListItems": [
        {
          "codedValue": "%",
          "coding": {
            "code": "C25613",
            "codeSystem": "nci:ExtCodeID"
          },
          "decode": "Percentage"
        },
        {
          "codedValue": "beats/min",
          "coding": {
            "code": "C49673",
            "codeSystem": "nci:ExtCodeID"
          },
          "decode": "Beats per Minute"
        },
        {
          "codedValue": "breaths/min",
          "coding": {
            "code": "C49674",
            "codeSystem": "nci:ExtCodeID"
          },
          "decode": "Breaths per Minute"
        },
        {
          "codedValue": "C",
          "coding": {
            "code": "C42559",
            "codeSystem": "nci:ExtCodeID"
          },
          "decode": "Degree Celsius"
        },
        {
          "codedValue": "cm",
          "coding": {
            "code": "C49668",
            "codeSystem": "nci:ExtCodeID"
          },
          "decode": "Centimeter"
        },
        {
          "codedValue": "cmHg",
          "coding": {
            "code": "C147129",
            "codeSystem": "nci:ExtCodeID"
          },
          "decode": "Centimeters of Mercury"
        },
        {
          "codedValue": "dL",
          "coding": {
            "code": "C64697",
            "codeSystem": "nci:ExtCodeID"
          },
          "decode": "Deciliter"
        },
        {
          "codedValue": "F",
          "coding": {
            "code": "C44277",
            "codeSystem": "nci:ExtCodeID"
          },
          "decode": "Degree Fahrenheit"
        },
        {
          "codedValue": "ft",
          "coding": {
            "code": "C71253",
            "codeSystem": "nci:ExtCodeID"
          },
          "decode": "International Foot"
        },
        {
          "codedValue": "g",
          "coding": {
            "code": "C48155",
            "codeSystem": "nci:ExtCodeID"
          },
          "decode": "Gram"
        },
        {
          "codedValue": "Hz",
          "coding": {
            "code": "C42545",
            "codeSystem": "nci:ExtCodeID"
          },
          "decode": "Hertz"
        },
        {
          "codedValue": "%",
          "coding": {
            "code": "C25613",
            "codeSystem": "nci:ExtCodeID"
          },
          "decode": "Percentage"
        },
        {
          "codedValue": "beats/min",
          "coding": {
            "code": "C49673",
            "codeSystem": "nci:ExtCodeID"
          },
          "decode": "Beats per Minute"
        },
        {
          "codedValue": "breaths/min",
          "coding": {
            "code": "C49674",
            "codeSystem": "nci:ExtCodeID"
          },
          "decode": "Breaths per Minute"
        },
        {
          "codedValue": "C",
          "coding": {
            "code": "C42559",
            "codeSystem": "nci:ExtCodeID"
          },
          "decode": "Degree Celsius"
        },
        {
          "codedValue": "cm",
          "coding": {
            "code": "C49668",
            "codeSystem": "nci:ExtCodeID"
          },
          "decode": "Centimeter"
        },
        {
          "codedValue": "cmHg",
          "coding": {
            "code": "C147129",
            "codeSystem": "nci:ExtCodeID"
          },
          "decode": "Centimeters of Mercury"
        },
        {
          "codedValue": "dL",
          "coding": {
            "code": "C64697",
            "codeSystem": "nci:ExtCodeID"
          },
          "decode": "Deciliter"
        },
        {
          "codedValue": "F",
          "coding": {
            "code": "C44277",
            "codeSystem": "nci:ExtCodeID"
          },
          "decode": "Degree Fahrenheit"
        },
        {
          "codedValue": "ft",
          "coding": {
            "code": "C71253",
            "codeSystem": "nci:ExtCodeID"
          },
          "decode": "International Foot"
        },
        {
          "codedValue": "g",
          "coding": {
            "code": "C48155",
            "codeSystem": "nci:ExtCodeID"
          },
          "decode": "Gram"
        },
        {
          "codedValue": "Hz",
          "coding": {
            "code": "C42545",
            "codeSystem": "nci:ExtCodeID"
          },
          "decode": "Hertz"
        },
        {
          "codedValue": "%",
          "coding": {
            "code": "C25613",
            "codeSystem": "nci:ExtCodeID"
          },
          "decode": "Percentage"
        },
        {
          "codedValue": "beats/min",
          "coding": {
            "code": "C49673",
            "codeSystem": "nci:ExtCodeID"
          },
          "decode": "Beats per Minute"
        },
        {
          "codedValue": "breaths/min",
          "coding": {
            "code": "C49674",
            "codeSystem": "nci:ExtCodeID"
          },
          "decode": "Breaths per Minute"
        },
        {
          "codedValue": "C",
          "coding": {
            "code": "C42559",
            "codeSystem": "nci:ExtCodeID"
          },
          "decode": "Degree Celsius"
        },
        {
          "codedValue": "cm",
          "coding": {
            "code": "C49668",
            "codeSystem": "nci:ExtCodeID"
          },
          "decode": "Centimeter"
        },
        {
          "codedValue": "cmHg",
          "coding": {
            "code": "C147129",
            "codeSystem": "nci:ExtCodeID"
          },
          "decode": "Centimeters of Mercury"
        },
        {
          "codedValue": "dL",
          "coding": {
            "code": "C64697",
            "codeSystem": "nci:ExtCodeID"
          },
          "decode": "Deciliter"
        },
        {
          "codedValue": "F",
          "coding": {
            "code": "C44277",
            "codeSystem": "nci:ExtCodeID"
          },
          "decode": "Degree Fahrenheit"
        },
        {
          "codedValue": "ft",
          "coding": {
            "code": "C71253",
            "codeSystem": "nci:ExtCodeID"
          },
          "decode": "International Foot"
        },
        {
          "codedValue": "g",
          "coding": {
            "code": "C48155",
            "codeSystem": "nci:ExtCodeID"
          },
          "decode": "Gram"
        },
        {
          "codedValue": "Hz",
          "coding": {
            "code": "C42545",
            "codeSystem": "nci:ExtCodeID"
          },
          "decode": "Hertz"
        }
      ]
    },
    {
      "OID": "CL.C66781",
